,accelX,accelY,accelZ
0,-0.64299229001184,0.14734417989447,10.306352548858
1,-0.60569272055072,0.1491452277882,9.4913467927446
2,-0.57760202640727,0.31784398945114,9.4619154509875
3,-0.48608277615851,0.31532254351975,9.6829969714417
4,-0.46323222021013,0.26422042584666,9.8268904719751
5,-0.46486608334668,0.12412881071112,9.8418385990884
6,-0.49563934323434,0.089128883915543,9.6164826458953
7,-0.44635951377832,0.19831813040118,9.8407670327648
8,-0.38453091529291,0.19230514302057,9.8302741740543
9,-0.39168936620827,0.32434457588947,9.6872312895066
10,-0.42974000326057,0.20070360809081,9.8314423722397
11,-0.39337250269183,0.25837580002633,9.7443838963082
12,-0.40185139704882,0.07687289076118,9.7868069943354
13,-0.4105871839739,0.00083179161027143,9.7535228664579
14,-0.48256095752771,-0.047501986870407,9.7080063122187
15,-0.53858982645161,0.079248913234762,9.7115962856379
16,-0.58190218066032,0.14606734430476,9.8687412878038
17,-0.60740097634982,0.06708363584756,9.7451692905807
18,-0.67325011769495,-0.053840319051968,9.6315373686914
19,-0.59710447471002,-0.089729570360494,10.010344373623
20,-0.64120250625685,-0.075513854515273,10.215013802492
21,-0.83299024984636,-0.093061853896805,9.8381404270699
22,-1.125685357876,-0.14630606528986,9.533461018256
23,-1.2188284572783,0.034584560116037,9.5745017874601
24,-1.2917232142386,0.020013332747708,9.906984113875
25,-1.4233358699659,-0.020111067049494,10.165042020952
26,-1.4945404178367,-0.093731562487556,9.889287325448
27,-1.5420609493055,-0.11121623550507,10.121189624312
28,-1.6972586996013,-0.23921255278429,9.792600837966
29,-1.7576485987948,-0.2311966687586,9.4939459481055
30,-1.7598112986644,-0.20790770746899,9.6944079481399
31,-1.7542115136993,-0.3495415965035,9.6961827743281
32,-1.4828754780164,-0.55825716408808,9.750483646196
33,-1.1619065981056,-0.36874432851618,9.9774341876278
34,-1.0385299111885,-0.42413797196745,10.004391278037
35,-0.96987491931213,-0.50791446213739,9.6033937094968
36,-0.90016420409189,-0.50028904865141,9.7074447865596
37,-0.97385447005599,-0.87384151962477,10.063650896971
38,-1.1215089486564,-0.79604243223279,9.8674490744931
39,-1.252241555149,-0.90391336959274,9.7630338828663
40,-1.2827828380817,-1.1965137603162,9.7833480104274
41,-1.1228255940604,-1.4157755028748,9.797266429332
42,-1.0214145391084,-1.7528808203373,9.8920194030661
43,-1.1160719186261,-1.8043965463995,9.7120423414269
44,-0.94261197267164,-1.968808846218,9.5924051202662
45,-1.008988951619,-2.0519871614663,9.6316527847378
46,-1.0003889047104,-2.4390125259528,10.016205030651
47,-1.008185817773,-2.2652537304487,9.9607500442153
48,-1.113645764256,-2.459915204964,9.8009562369561
49,-1.1386941907259,-2.62404220972,9.4993840751132
50,-1.1032877776157,-2.4644362019341,9.7598450202131
51,-1.0470933269256,-2.4026977255907,10.147482225917
52,-0.91492280385824,-2.5148384442411,10.113760995796
53,-0.91364290153805,-2.9170928817874,9.50668734023
54,-0.85659520284069,-2.5977206254179,9.7148211166028
55,-0.7947588530426,-3.0271453757818,9.3035900314632
56,-0.60696849166418,-3.0427583952544,10.02684955687
57,-0.37123060784858,-2.8423341676434,10.519055266201
58,-0.30082671804631,-2.5709128567457,10.199499730838
59,-0.4234761812882,-2.7358996283532,9.8209205759648
60,-0.56429817394734,-3.0316918693927,9.1073472006541
61,-0.69465249437231,-3.2457699154079,9.061738837259
62,-0.40581695849952,-3.3012645093892,10.006987149297
63,-0.35501500317974,-3.5343596272044,10.853886651394
64,-0.45771155385795,-3.0157911179181,10.522408936166
65,-0.56482992829179,-3.1664587867277,9.4633865579587
66,-0.48426024534473,-3.003019808888,9.1494337612373
67,-0.076849617577238,-2.975309415654,9.9216318310609
68,0.10513185503532,-3.0708697214193,10.206086774393
69,0.202480505751,-3.0765837383747,9.8295748984127
70,0.23025598988353,-2.9389411347778,9.3781170896752
71,0.41591046938046,-3.1055925618503,10.148645142795
72,0.5014974858203,-3.1214813762379,10.591258739785
73,0.5119637510338,-3.0107210176856,10.881562613908
74,0.36811213898687,-3.1597193471891,10.497196237163
75,0.42578461498008,-3.0026815219729,9.5885506381089
76,0.4877386515389,-3.1404037246589,9.4595074498885
77,0.61217007240401,-3.0989410151645,9.5028335131913
78,0.51485928317492,-3.374104627492,9.9487558701441
79,0.53050718237569,-3.583000665438,9.9824872252274
80,0.37301514223504,-3.508893277219,9.9032838251253
81,0.49566765759507,-3.5247126902644,9.7057590570103
82,0.31832593915332,-3.5256184665693,9.9550768365347
83,0.20121758263423,-3.5436167399888,9.9621281374718
84,0.33875565042333,-2.5521795990055,9.3325906144502
85,0.38699983024363,-3.0496652258467,10.270177070003
86,0.32968714200077,-3.1496527413393,10.641646047865
87,0.47553549466259,-2.1635760967247,10.16060309556
88,0.283563534607,-2.3411549667174,10.281053064667
89,0.30300066908088,-1.933675572063,9.2959258518255
90,0.21576435245695,-1.4790817062168,9.4155488151342
91,0.40405193104319,-1.9584862377817,10.113864664353
92,0.22947262919436,-1.4218685414103,10.437250373963
93,0.11279690225262,-0.96043694611575,10.037875940786
94,0.13774940179306,-0.68619409505879,10.070524737428
95,0.24220217443975,-0.48488683665171,10.365044552639
96,0.18061111085542,-0.23021325353543,10.197692715989
97,0.14059752493818,-0.20876567535897,10.360453517554
98,0.18730383463231,-0.13865045821392,9.9023309847743
99,0.25399304954829,-0.27746081534383,9.9087555727649
100,0.33809078193985,-0.29831976834414,10.246465835357
101,0.28654521960505,-0.035364813838896,10.245126816107
102,0.37016972595798,-0.47715957240073,9.3105116643655
103,0.25489816910029,-0.084274343563955,9.6350501795682
104,0.3627692175764,0.060161252312294,9.9001632800632
105,0.35142899359316,-0.20376832533839,9.946782631038
106,0.35470190814412,-0.30548065263316,10.020973216943
107,0.33567354937977,-0.24800688664531,10.156304490833
108,0.45674050546212,-0.2983385024256,10.329033331806
109,0.42096291084377,-0.078545350091815,10.242072350619
110,0.42659505343784,-0.23103797427683,9.9315388517122
111,0.29303286405514,-0.68620778848795,9.4601124718023
112,0.34081438123367,-0.25224167809535,9.6656163374277
113,0.35208783010263,-0.19283094923744,9.7332206138366
114,0.34762371061212,0.10138017887778,9.9628862010111
115,0.37021848575934,0.13452773174695,10.386296249306
116,0.29948396797283,0.11142476438486,10.062859027999
117,0.28198418252011,-0.10274279570177,9.8549665865598
118,0.32713292257426,0.041284260103148,9.7812610671806
119,0.31624189736661,0.11459124403842,10.11737921103
120,0.40691752584015,-0.050468941514141,10.002830996319
121,0.58183704487406,-0.22482176203878,9.9322767764542
122,0.55690536802019,-0.30081992080211,9.7764481954615
123,0.39829419423062,-0.35845713587792,8.5177661823823
124,0.35385026716482,-0.1903337884167,8.8387955822396
125,0.3963903194942,0.36723028862841,9.9373509827915
126,0.18540127432673,0.13951769214857,10.550423942769
127,0.3957364232514,0.20076781089949,10.306792100629
128,0.35166674322091,0.23411925494777,10.294001644885
129,0.1841902053546,-0.76521687553594,9.2770303122937
130,0.32871858339608,0.12972877810335,9.5213294273957
131,0.43967602269699,-0.13874339705558,9.4654793654328
132,0.10774294907827,-0.25830758143516,10.071474130965
133,0.53464584982992,0.20067539375531,10.117489698958
134,0.41403505671101,-0.2173493586557,10.911681531393
135,0.50585476870572,0.25335057231524,9.2732595501856
136,0.33417623496102,0.11543050430807,8.9457575276437
137,0.27147740799248,0.043632615904415,9.7219206133597
138,0.62662634667969,0.039090826431119,10.307795896015
139,0.40399399519687,0.14386890457873,10.510832568906
140,0.44246364471898,-0.18443491997157,9.9780242051317
141,0.30503035166304,-0.075793739397155,9.6001892288587
142,0.47664249075228,0.060505018243071,9.446440859631
143,0.30745803820072,0.13178060724854,9.9404944115957
144,0.3533868974238,0.23211025292953,9.7117151188987
145,0.39896945911242,0.052091236284289,9.8268696065898
146,0.5474092873858,0.40826933122011,9.5041168946147
147,0.38423011864878,0.26458140160506,9.8034099701914
148,0.39824940820547,-0.032575906718881,9.4654430155982
149,0.39320987917223,0.25552834675614,9.7927994445206
150,0.52230281912386,0.099046712565588,9.7726744229933
151,0.48091990216728,0.24356749494828,10.596445155237
152,0.45810271128259,0.16424608235472,9.6149194528797
153,0.50471853195618,-0.0031322568336685,9.4567368958929
154,0.46658060698403,-0.11737710913945,10.271655756013
155,0.3457569533869,-0.10108305704784,9.8600803147218
156,0.18098358153325,-0.12382734219899,9.7107236293906
157,0.091141736151523,-0.30924209811628,9.7056708995687
158,0.119664804271,-0.28169432333016,9.9121562777326
159,-0.10763870995553,-0.03499940143081,9.5916612344502
160,-0.20657972096797,-0.27175298204689,9.5456755271907
161,-0.44746012501445,-0.17749022126491,9.0209283669737
162,-0.37940388488705,-0.28712938303064,9.3783883565172
163,-0.11901671867911,-0.62597460580675,10.924701266267
164,-0.29956995475879,-1.1804094249561,10.827620185562
165,-0.25376201432309,-1.4732044818695,9.0186997574659
166,-0.27094776234714,-1.067685555707,9.2193718332332
167,-0.45791744797527,-1.9512912974171,10.292072023768
168,-0.4111604915784,-1.8238432087314,10.179821870285
169,-0.56451539664195,-1.9009113290305,9.8906807061144
170,-0.3108675394609,-1.6778388148373,9.6062900673874
171,-0.22134099766307,-1.6568713936265,10.246557804303
172,-0.12530788805257,-1.6071701433248,10.402263920613
173,-0.13678235166944,-1.6315842742609,9.6628360944826
174,-0.26780995634136,-1.996543233399,9.0812861700574
175,-0.26828043321028,-1.9667182918451,9.5221644878878
176,-0.18624995581938,-1.8484488269013,9.9959848162292
177,-0.22357740402976,-1.7911937452285,10.251505021952
178,-0.17447876302575,-1.8043357614522,10.040508535259
179,-0.22029272479171,-1.6148488583958,9.8728032677131
180,-0.3198942718046,-1.6843711681712,9.41550789025
181,-0.30429932205664,-1.5200345336685,9.5474414293485
182,0.048768641677399,-1.8617247368168,10.026911218123
183,0.26852375074713,-1.8136186763987,10.262335483144
184,0.5008125222076,-1.8299585570187,9.7846837817615
185,0.41271503563973,-1.482147856616,9.8797662292763
186,0.49933466146639,-1.8858420207028,10.245419685214
187,0.54901795926098,-1.5847123455596,10.106446731368
188,0.47362513110561,-1.8984241235775,9.7456456782306
189,0.43840427138981,-2.180964073707,9.3257207391817
190,0.39998396640055,-2.1154995864126,10.070893922371
191,0.3656006644949,-2.1851121620995,9.9892562938125
192,0.37446783420379,-2.1543223830598,9.9159932075987
193,0.44626452665541,-2.2302856321169,9.9294528559415
194,0.49084207621026,-2.145472357866,10.191718573773
195,0.48013348322399,-2.3306418350796,9.5264302287214
196,0.40310695688532,-2.1375810979655,9.4299325745264
197,0.32279033961896,-2.1079503900752,9.4589852373152
198,0.42046331391187,-2.1187151004179,9.8905302616065
199,0.50665238133003,-2.2776029032702,10.141748447949
200,0.51719084416801,-2.4108436754949,10.527243304937
201,0.41789712334191,-2.4861304586599,9.6928170964064
202,0.45334171171542,-2.7962500031981,9.2719930208369
203,0.5170251090087,-2.7102675932567,9.5297155777961
204,0.2524102142545,-2.8863816721052,10.281967491615
205,0.15075031304281,-3.4206749843584,9.4740882388185
206,0.084161116373738,-3.0720463279832,9.8609858656514
207,0.12942066628636,-3.296073352256,10.385660979617
208,-0.069153957418156,-2.8649489777078,9.7473042463551
209,-0.071287752171712,-2.821500706804,9.3524897652337
210,-0.04405202734465,-3.0113053220835,9.8996140501534
211,-0.019302128892635,-3.1588082961387,10.882142732428
212,0.0051450469974585,-2.7539814929031,9.5257662952857
213,0.12608011090415,-3.0333852330651,9.3467322683512
214,0.1130204128168,-2.1499680634878,9.83572648551
215,0.1031111461787,-1.7729261432094,10.310359125975
216,0.098201845605606,-2.5622584556025,10.003278939111
217,-0.03387734378606,-2.1740122190353,9.84041245756
218,0.12015030435497,-1.8463326319233,9.4771614469035
219,0.18717089849905,-1.8777039467949,9.8777146169787
220,0.095500103088745,-1.7177863499059,9.6526682218047
221,0.050808907598449,-1.5738894430399,9.2972456369308
222,0.080858684764991,-1.9776406969088,9.3187708806086
223,-0.15355312867259,-1.688982405182,9.4905805146088
224,0.10880330113386,-1.1420021617912,9.5142709579044
225,-0.041488642429732,-0.13578988388492,10.280444847657
226,0.24537430718647,-0.094022458621138,9.9791068351026
227,0.014951989727667,-0.25337948125012,9.6517411711569
228,-0.069581188671819,-0.1272157680396,9.1434500927975
229,-0.0095048011076584,-0.74246351260098,9.6254547674997
230,-0.065878798917246,-0.70401597711138,10.004228990376
231,-0.027787070301807,-0.42244650503775,10.208956270232
232,-0.1100687133689,-0.57678475680846,10.079251879365
233,-0.00037713833939461,0.16301004227138,9.8306648699487
234,-0.13895249075168,0.54692454314203,10.100267971094
235,-0.12010053193945,-0.24949188276258,10.152038906606
236,-0.21063065952054,0.09368898594408,9.5787646368571
237,-0.29213318544619,0.48960046970825,9.8512398860603
238,-0.18899277146671,0.36948269155105,9.7564445199436
239,-0.28688830803079,0.48691890302763,9.9052903793698
240,-0.2547435340398,0.66406740439479,9.4157088315743
241,-0.26221143662235,0.71569996990598,9.5771024371893
242,-0.16057957903965,0.64148591975046,9.6386114270816
243,0.10167182474865,0.93745826281053,9.5679415772229
244,-0.038348143165405,0.94494971839752,9.7599179561258
245,0.11834886841094,1.5113317737094,9.9451087571846
246,0.037222660244484,1.4955718418138,9.790284945132
247,0.12792662987882,1.6935802761597,9.7725991855689
248,0.052269744794606,1.7815851760177,10.063029542576
249,-0.12633122690698,1.7763192216777,9.8362001253256
250,-0.28036911950605,1.5807469994223,9.4862601339378
251,-0.34528866480111,1.6623142150526,9.9439265263384
252,-0.42937938564875,1.7530572472593,9.9087950524162
253,-0.54640457360681,1.8093604725171,9.5825290269779
254,-0.55191212873933,1.9101309712155,9.4767697812561
255,-0.58413508731369,1.7906179457184,9.5699353036168
256,-0.45310764533294,2.0815706076565,9.6042038193066
257,-0.2855298538929,2.2998237464101,9.6486669275046
258,-0.19074097368157,2.3527514675965,9.6707722381944
259,-0.12478716404766,2.298143057108,9.7173313723967
260,-0.14348751190783,2.3279563227883,9.8287456538677
261,-0.39083967674544,2.3502956395178,9.8704171846056
262,-0.70211728926086,2.4074320368412,9.6486549488031
263,-0.83682326830934,2.8189706645491,9.4746480257087
264,-0.70410489618757,3.0303586932733,10.012253996317
265,-0.52607403672743,2.9783946473416,9.9920580723782
266,-0.4214095052664,3.0501210620956,9.8645511629157
267,-0.29223796558741,3.0683016390443,9.6429945405647
268,-0.17454170340552,3.0621551689005,9.7084702826728
269,-0.15057972759602,3.0575966319561,9.8526695050101
270,-0.12774253942327,2.8289273005444,9.9628237202505
271,-0.16069960437232,3.0090718933921,9.8741102950187
272,-0.18503364730854,3.0195847057995,9.5545421687501
273,-0.1321985718071,3.1020715876627,9.7427795808138
274,-0.035461067813738,3.4934949232057,9.9733513752392
275,0.012564979596471,3.4459458391798,10.073643908628
276,0.031935632675896,3.4417195359285,9.7322776320327
277,0.038044498759135,3.4085469526547,9.6466363893081
278,0.165659234447,3.5373051938638,9.6486848780988
279,0.16011156247313,3.7061680496933,10.039400361261
280,0.17561144117493,3.7958166427342,10.12101249813
281,0.032847502917819,3.6281060328117,9.7989472116344
282,0.022492367530622,3.7347663555783,9.820615728667
283,-0.057768853281385,3.8622806662332,9.8347169996888
284,-0.075518101113535,3.7552416583631,9.588787555857
285,-0.092544125791419,3.8734164984846,9.516839383135
286,-0.058936895056849,3.7380403831777,9.642105632149
287,-0.1338230499504,3.9282475022205,9.7514190956567
288,0.020396917401926,3.9368025651374,9.7114571430968
289,0.14143685574125,3.7696694842139,9.8597489709199
290,0.11059460813764,3.8133942749436,9.8581197559017
291,0.15922032402952,3.4835183759894,9.64515197397
292,0.28003513565274,3.5242614795258,9.8746877900993
293,0.30223930525921,3.4816259681035,9.9823245601499
294,0.23134502403259,3.4338931212532,9.6623444349072
295,0.2517341632963,3.3404770612994,9.6485568628062
296,0.32645963233588,3.2213973016827,9.937856744465
297,0.33523620672344,3.1681544071853,9.9517447136686
298,0.29049115052681,3.2442038416611,9.9994174359634
299,0.26775630330293,3.2561366260471,9.8116256646125
300,0.32092460700712,3.5532657713769,9.7239886385384
301,0.34528633102752,3.3407825820052,10.004888739875
302,0.30549529092031,3.3523726431283,9.8787146999349
303,0.24905070509954,3.3308604019765,9.7286322802027
304,0.30067977728072,3.2304264579365,9.7364298338191
305,0.26718742781318,3.3914227437513,10.151484048203
306,0.34332175328061,3.3020503288595,10.257808875484
307,0.34061332375471,3.4945973394107,10.074702096739
308,0.34414241611368,3.5072453685517,9.6915987713588
309,0.37204074154942,3.3513943011325,9.5563502724913
310,0.39338158873593,3.1588375782551,9.9354745788843
311,0.38939323946908,2.8158585401242,9.9861053513306
312,0.40238317299201,2.6660812586238,9.8140827187867
313,0.4013584375135,2.5004355797458,9.6131376658719
314,0.35225009449803,2.441455380715,9.6259003301712
315,0.30335975273557,2.3624730627602,9.5375083981025
316,0.36397671735585,2.4360496521396,9.8191432134974
317,0.40545530778428,2.3799473693537,9.9543729552509
318,0.36695719839321,2.3463544274228,9.9974284474234
319,0.31422434285254,2.3137794704489,9.5654820714035
320,0.35342167467523,2.1613703134175,9.0827743257873
321,0.4036661450865,2.4255618043615,9.8542646527782
322,0.58378091750783,2.4364010803295,10.064335772835
323,0.55907200339781,2.2519560200717,10.047995482523
324,0.58598470484787,2.0309902173805,9.8002164199275
325,0.53540479005204,2.0155092676218,9.7167136393661
326,0.42929537552127,2.1581194823587,9.4483395833928
327,0.64817970519384,1.7003334797875,9.8066720938025
328,0.62126014080177,2.3529475727205,10.317655111775
329,0.62317680594392,1.9198936654338,9.4676019648937
330,0.66125794801947,1.840299407565,9.6423379431586
331,0.45571575382549,1.5418862064634,10.226597761461
332,0.62996086462555,1.2315727412805,9.6994352322272
333,0.4077785299614,0.78912801564642,9.92882031704
334,0.48664116436715,0.67856296370871,9.4473908341863
335,0.4254069602295,0.62174387564503,9.9067921969577
336,0.43186248558634,0.52431331555191,9.8538684129539
337,0.31379022214852,0.46411485513251,9.4628370219571
338,0.28591514770206,0.64037129891099,9.7622195713408
339,0.20767503268774,0.53105555906364,9.931703966214
340,0.1495023125752,0.56032000421826,9.8405288122679
341,0.12521062101486,0.46528993344953,9.9458613798489
342,0.1169739104592,0.55806226195523,9.8717574406414
343,0.089824336076407,0.46192452343896,9.6860522413623
344,0.0044354493892039,0.35768232399559,9.8439859623639
345,-0.079747494389891,0.051289100569322,9.7741394931144
346,-0.09907961463893,0.33799658098782,9.9302320186881
347,-0.098391047899027,-0.20391067299344,9.8989540539862
348,0.013761394762313,0.22379192057019,9.9681844053717
349,-0.10055764650496,0.044313050252495,9.9832717341145
350,0.028629828139124,0.093981823663552,9.791737616349
351,0.12100836814644,-0.10979128069282,9.8283816147885
352,0.16577052681435,-0.072594554301944,9.6613141415646
353,0.18514426247702,0.089680883949046,9.4687644039272
354,0.23913349612887,0.02903649631495,9.6226479853543
355,0.32224285167584,0.057864453571204,9.9158870726021
356,0.32772614764945,0.13555296308909,10.140892735692
357,0.33405747085159,0.05984998605742,9.8220325335242
358,0.33779742101552,0.067396871983278,9.6466918589135
359,0.35967218779752,-0.030577556639277,9.6305334638931
360,0.33849668168968,-0.057266892728995,9.690193651933
361,0.35251330989945,-0.015451859864173,9.8288895896193
362,0.30936757822934,0.029084171780414,9.9465494226608
363,0.25136684901292,0.10975891578872,9.9020646091983
364,0.29071699518586,0.07938634291283,9.9268636723895
365,0.18165114904235,-0.14785092134225,10.009009816289
366,-0.023349724760441,0.0045703270355087,9.1294239656177
367,-0.15794846647208,0.020315146613145,9.1941733818123
368,-0.21445986090849,0.08988301607932,9.4113249707667
369,-0.17721856240667,0.014751949607616,10.13793137875
370,-0.20415040384743,-0.065044309167089,10.011884610725
371,-0.35318983688423,0.023401922785954,9.5411857458605
372,-0.41190979218781,0.018006769114856,9.5093021601948
373,-0.47972899038675,0.35051263587381,9.6016512533909
374,-0.57010525212358,0.33836030796976,9.933843096009
375,-0.64433403579046,0.26206334186875,9.8007409782929
376,-0.6560654569614,0.37771192642419,9.7651790785674
377,-0.64159086298046,0.39434730758445,9.5445097850301
378,-0.74842979092157,0.2617419867493,9.3270295135497
379,-0.88212352418779,0.37586499447747,9.5027959409176
380,-0.86855955546349,0.42422354653303,9.6856924544518
381,-0.74526274260101,0.43519476801312,9.7565826349715
382,-0.855265228537,0.41874313800227,10.051282874864
383,-0.94038399299509,0.24201221091639,9.8387205351099
384,-0.86293081142771,0.09319438234073,9.3065189903315
385,-0.9341799174322,0.017038249713795,9.9591110525768
386,-0.74127672986481,0.15470366334103,10.225545526519
387,-0.787426813347,-0.01353701206182,10.333813017877
388,-0.45761303460781,-0.018652442987495,9.8241980124197
389,-0.50189125349282,-0.5820676073903,9.6852981033115
390,-0.52677714258006,-0.73310889963691,9.9349416766262
391,-0.31120496468124,-1.0586622241757,9.7897655108229
392,-0.27353785685201,-1.1001830593072,9.782235393763
393,-0.13179806078152,-1.3163007407922,9.7046692092433
394,-0.082174444595345,-1.4129149420919,9.5659947756499
395,-0.047201929931848,-1.5680733262494,9.6708409929699
396,-0.060121217415886,-2.0050700903126,9.5565858353186
397,-0.050804641680323,-1.9585794839009,9.5379687906971
398,-0.089876174706998,-1.8432199166938,10.17731126043
399,-0.048339280706541,-2.2678357840041,9.9625803436386
400,-0.23651163108813,-2.2231060233278,10.270932229249
401,-0.2662219633565,-2.5214197890572,9.876006620591
402,-0.46725613879439,-2.5988885572691,9.8417654451709
403,-0.51825310424715,-2.6731587209365,9.5318999966815
404,-0.4462997749055,-2.7616860436014,9.5300679345163
405,-0.43469567114421,-2.8961076346345,9.8660814795634
406,-0.42788691080064,-2.9584872678652,9.9069750344715
407,-0.41652520517335,-3.1335533773695,10.008337062382
408,-0.50597872561691,-3.2908433414698,9.7815745834117
409,-0.52973440127881,-3.5635922342272,9.7816095037184
410,-0.57756340636897,-3.6061220393919,9.7008968935543
411,-0.59240663827786,-3.6699979983861,9.732655896368
412,-0.60837474357054,-3.6472948371175,9.6027191224637
413,-0.44649652363568,-3.7192144435733,9.9142880414168
414,-0.39854313661702,-3.6166065126901,9.9051567768916
415,-0.44141160246218,-3.692693953529,10.015525422947
416,-0.45882453778434,-3.7050601890953,9.4876746921647
417,-0.36072260146941,-3.6343210129794,9.6547445668732
418,-0.31794657539249,-3.5499981551825,9.6765940058393
419,-0.21084329962387,-3.7563073237999,10.024738614208
420,-0.13723525244401,-3.5688363680645,10.219035218338
421,-0.083737179523133,-3.6733652808941,9.8349080250715
422,-0.10660199171366,-3.7537074623482,9.5335592931212
423,-0.22871932074252,-3.5567760383669,9.5889234507156
424,-0.19818823598385,-3.6501167302165,9.5591392240899
425,-0.23391969798099,-3.5194850770882,9.7739616554902
426,-0.16950609306647,-3.640106242564,10.158952673242
427,-0.17270989230916,-3.4919389521335,10.37405340132
428,-0.10397596114209,-3.5260173297951,10.084015570387
429,-0.18419154810835,-3.5346630317843,9.6527335482428
430,-0.23956270110915,-3.5357393030471,9.1713219026875
431,-0.17639181253098,-3.8227870603096,9.2523527081062
432,-0.071262280034344,-3.5968001865794,9.805957467882
433,-0.064758212831768,-3.4069799615675,10.450228538155
434,0.01748617692383,-3.6697474824755,9.9741766774609
435,0.019646737631907,-3.6417925756443,9.6549957397762
436,0.048579888181879,-3.6942329284783,9.6155764012675
437,0.081392655753743,-3.6402703462746,9.6310163808593
438,0.018784580661699,-3.6046866131187,9.5905183118957
439,-0.054800976081433,-3.659643427543,9.4316806630769
440,0.07431774474622,-3.4817166514197,9.4895938556989
441,0.32051692304948,-3.758386639837,9.6577090515618
442,0.67603251198994,-3.7005283216184,9.7296640506637
443,0.74807536098307,-3.4756892759218,9.9057260953835
444,0.77260301382559,-3.6411211470775,9.6696120526755
445,0.76887601883311,-3.6544263931516,9.6356399855661
446,0.77021490399901,-3.6902538232783,10.026897535854
447,0.67279773106891,-3.9179055068725,10.198468107914
448,0.64200549549647,-3.8850857449447,9.9254931834831
449,0.61976383860542,-3.9354720288616,9.9936362064485
450,0.67503045018404,-4.0195465757468,9.7193732157261
451,0.58505982852563,-3.9659994859148,9.9730168735921
452,0.63693824375401,-4.138231062087,10.033659853813
453,0.46939306281601,-4.1282464977696,10.031511627444
454,0.082458800128779,-3.9994658845979,10.088775189788
455,-0.17760598551911,-4.1011584838847,9.3722443558223
456,-0.31711165507418,-3.9406970893557,9.7815766283966
457,-0.37771229826716,-4.0049973805243,10.055715939081
458,-0.58303757435822,-4.1339244003836,9.5278571682817
459,-0.75203319022982,-3.5163999461678,9.2494126438292
460,-0.63323040156575,-3.5792991035021,9.5786062119232
461,-0.54446054557924,-3.0716554342593,9.1273129072661
462,-0.28308499018337,-3.3786955652821,9.5477733679438
463,-0.029793213424017,-3.5420957500085,10.607694129388
464,0.074784278628645,-3.0524196327365,10.240163441437
465,0.028200686329592,-2.5906568630286,9.943760294491
466,0.035120753124945,-2.1797675316417,9.5645687442329
467,0.023329340687638,-1.8320742238853,9.4331504011102
468,0.045584455905204,-1.2628908221523,9.6950638842025
469,0.09422552948529,-1.1506728938084,9.8895134465623
470,0.16234188844791,-0.85136235205693,9.9095303724459
471,0.17658499741005,-0.82021942878825,9.9783795520849
472,0.14335791859267,-0.95095034399399,9.6413264951448
473,0.11722852241471,-0.87438672969849,9.8476559236008
474,0.028023599992736,-0.9097818354528,9.8117466973242
475,-0.20312066328675,-0.73912339167194,9.9377762208181
476,-0.4770332264878,-0.85190635282285,9.8676862449159
477,-0.65002365034433,-0.82652349756159,9.7757857369696
478,-0.72225310060445,-0.8035887793706,9.7312197246893
479,-0.78702946904326,-0.7427889479174,9.6527529097565
480,-0.90723057425058,-0.55517523577949,9.9062740799671
481,-0.81480242718151,-0.31665061649507,9.781868195053
482,-0.86760336318011,-0.21609075084226,9.6435216533381
483,-0.89925810221633,-0.1089977275878,9.6349501712826
484,-0.93473678123397,0.042483646385014,9.5748514493609
485,-1.1418767856335,0.51663105411375,9.5669717819376
486,-1.1285124223444,0.58879885632297,9.9224993974764
487,-1.6615166798308,0.7355327423455,9.9625348643694
488,-1.7212152212916,1.0342600483803,10.219685389927
489,-2.1800244555816,1.4228223850734,9.5408755084836
490,-2.2689034880254,1.6630784675163,9.5398930026885
491,-2.3625329255135,1.1006916701561,9.5198932835468
492,-2.3859922725297,1.6919124142212,9.8410714400086
493,-2.2727841830462,2.1869205638088,9.8588196112615
494,-1.663315611735,2.1259538182468,9.607611190229
495,-1.2504533335897,2.283120411425,9.5492242399729
496,-1.075295176228,2.8001558991338,9.9913128286444
497,-1.0694157044815,3.1482379430716,9.8563970470732
498,-1.0672862144639,3.5473082272522,9.6566268354314
499,-1.0025284308493,3.8385667622416,9.6719534102977
500,-0.9851408171194,3.8728646113583,9.5520610782543
501,-0.97959262470561,4.0399841588826,9.5727805939177
502,-0.98560987081169,4.0673723865476,9.5460074013002
503,-0.8231444216546,4.0447961349995,9.4592033048732
504,-0.57844464871583,3.9125439859867,9.3169637777596
505,-0.1088377443344,4.0932240382543,9.2542887484884
506,0.65595516329881,3.9004206170297,9.1580578807982
507,1.1709976438623,4.1466537862719,9.2361508959036
508,1.4558205507381,4.2720974871292,9.6560729874584
509,1.7236898575763,4.344236490013,10.010589580343
510,1.8392520453929,4.6704816143069,9.8031516255488
511,1.8597708277366,4.5249336191776,9.9370419442538
512,1.8483129525814,4.3915112353278,9.1452284759885
513,1.7194117188264,4.0813247606997,9.0405360120957
514,1.6705699291562,4.0243066265714,8.7125389830562
515,1.6841158048236,3.9105950762524,9.498604275359
516,1.9163814453507,3.7840807135895,10.136675880972
517,1.7829363826116,3.3570347138879,10.746220176012
518,1.6482038587047,3.3025297119948,11.014890526538
519,1.3296592402968,3.0476856431772,10.312795196535
520,1.1982431179393,2.9108408738448,9.8560467494157
521,1.0360563238172,3.1395528302574,9.8176093822066
522,0.88830662351912,3.0373568972378,10.225456513466
523,0.60858069666269,2.7451494409654,10.093353770159
524,0.38512440683607,2.7350679454604,9.9719228858807
525,0.34148344098669,2.8210087464151,9.9631174342587
526,0.34580873872536,2.715510454782,9.8874737252777
527,0.27811769558828,2.7491351484532,9.95867914863
528,0.21407051182338,2.8021186598366,9.8661019463011
529,0.29852199563731,2.4740578222557,9.9061434596546
530,0.15935815166289,2.511749228226,9.8906343116668
531,0.092760250131026,3.0137410793515,9.7311656360768
532,0.16046871773407,2.9546455176518,9.3069262919662
533,0.19496003600378,3.2714608104019,9.7960156299403
534,0.21693420102713,3.4575605290831,10.08280414849
535,0.2839082704941,3.5531514827178,10.163082533622
536,0.24547364869672,3.5753846723713,9.8796462288618
537,0.16028800870128,3.6927675574799,9.8901099917149
538,0.2371922545468,3.4219276494932,9.7825115532394
539,0.212499765013,3.5822150722938,9.6953297480911
540,0.1914307104678,3.5279872875458,9.9045272168722
541,0.079532124369192,3.3267156997568,9.9933226809316
542,-0.13883392484431,2.9330606741142,9.9699656137436
543,-0.32335654653129,2.7387947164285,10.03499872175
544,-0.30575410406985,2.3124034759313,9.8606829444175
545,-0.2408843286645,2.1331335479922,10.124069481938
546,-0.21133409689389,1.732435433586,10.288818653719
547,-0.21808075304738,1.7362724308686,9.9313185893603
548,-0.33772567242436,1.9698040232917,9.4968235314451
549,-0.24657738621792,1.8686192147327,9.5304775963893
550,-0.19366562398026,1.9524346593983,9.5333686836457
551,-0.19092350035391,2.1447194059234,9.9265144934818
552,-0.055528215793381,1.8447421287962,9.6475325497527
553,-0.04155213559355,2.1072040078935,9.7727045432504
554,-0.018015670427541,1.8639866761714,9.8764506311124
555,0.083168007237892,1.9503967890572,9.7429865502979
556,0.062481528761525,1.8482733729577,9.6696063752885
557,0.053204093163809,1.7862290869932,9.6542937510473
558,0.052328939621369,2.0347971681103,9.574869838042
559,0.15320638307036,2.1859368657174,9.8809447346487
560,0.24528600176081,2.4690316371846,9.9235359398533
561,0.27592499227163,2.4935273788081,9.8818203434076
562,0.26735046319255,2.50254311399,9.680229584335
563,0.177071843964,2.6803561666368,9.76763113623
564,0.14403757931307,2.4978685617452,9.7154161065473
565,0.35994761370655,2.5942295133405,9.8105616849394
566,0.69024243512802,2.5738208543321,9.803650083947
567,0.87929873341357,2.7091097313319,9.640420685159
568,1.0109186777763,2.7270275953737,9.7572605258812
569,1.1055622767625,2.5622666833886,9.9967288692417
570,1.1972071965212,2.2717546645055,10.06865871036
571,0.99193135785006,1.9640750074197,10.0014773483
572,0.97530257777961,1.8301761743473,9.7562017359737
573,0.98404898465182,1.5467214802323,9.3537598980533
574,1.1118942686734,1.1112778847039,10.862187469141
575,0.99028212321941,0.66340044168681,10.42591879681
576,0.86419572658769,0.7445952781907,10.128719066013
577,0.8659549721166,0.34078258153631,9.7674118154364
578,0.73348570422689,0.33130165478893,9.7925681049134
579,0.91051734789676,0.45311133871206,10.122505358826
580,0.90055132810453,0.42120730103109,9.8394771838672
581,0.86332094662423,0.44702229581411,10.078435958652
582,0.88205810671698,0.26518936420401,9.7781131256468
583,0.6926050494961,0.28549754115528,9.6807306547125
584,0.77683142412339,0.34804115391433,9.6166452972996
585,0.8390634404174,0.29234809170573,9.8518637909117
586,0.80844500419802,0.32802987058952,9.9792186811314
587,0.80632410278119,0.28667039248006,10.091188802877
588,0.88353795878458,0.094753595034019,9.791553308473
589,0.79800255934487,0.23746686041805,9.9997119640932
590,0.85691171641208,0.090488184885708,9.8848647968473
591,0.8103236287195,0.25664141936353,9.7524516704944
592,0.85199164689412,0.033272841696788,9.6496204809774
593,0.78188055828539,0.36716818488168,9.6718841638869
594,0.8142557673731,0.20701235111999,9.7916693132363
595,0.72774846583727,0.3873994212606,10.029080769855
596,0.60472024701479,0.27691109203324,9.9533877947027
597,0.37450867156755,0.19076484943395,9.9802831577529
598,0.23940280485932,0.097819499573216,9.9136422077165
599,0.024553028423684,0.12055667107419,10.054805019487
600,-0.064787526951837,0.33955515800977,9.9420759965654
601,-0.19544878309789,0.17708258955857,9.8132336783205
602,-0.21596269593336,0.75708962462428,9.6807215714922
603,-0.13216496829346,0.455709101073,10.136547421349
604,-0.12638259055173,0.6786355649752,10.397549624843
605,-0.019536534684993,0.5870694827518,9.9016190218515
606,-0.21298727779892,0.92787181411343,9.3865215706648
607,-0.15079623490863,0.83578187474663,9.8215028329706
608,-0.062892554743474,0.41735596556163,9.4860761469041
609,-0.25092978780131,0.31382457616052,9.4514315200083
610,-0.19082124210845,0.44446341476027,9.2664650149584
611,-0.15604372404954,0.4632118881812,9.7468794681276
612,0.029343485851146,0.48288009247273,9.9702694243614
613,-0.037570651960229,0.41708312739114,10.043223705198
614,-0.053472455572076,0.20029727263221,10.099976899707
615,0.061693176303417,0.21545526958318,9.8900633554204
616,-0.22911628916688,0.15848578766081,10.522133669356
617,-0.10861632342651,0.11083071667455,9.5304574485063
618,-0.033797210091255,-0.65080691338223,9.8483863874911
619,-0.024791005175589,-0.093915330513987,10.258404403511
620,-0.12174874436643,0.1417723361098,10.097932677
621,-0.23383372434248,0.19588966430699,9.8139283951117
622,-0.089079259661432,0.30269024231489,9.6638211235814
623,-0.078291999458965,-0.18098137791038,9.7740249082776
624,-0.14999633025648,0.091340248570175,9.9944321410779
625,-0.11233106060935,-0.27287478977929,10.317287870143
626,-0.071724562096331,-0.6001154919679,9.6782027106748
627,-0.14954252065165,-0.44823018290121,9.7060928048879
628,-0.066669808704239,-0.17892434824225,10.114621783448
629,-0.038562604833868,-0.18922674671814,9.9247109496464
630,-0.083280586572039,-0.23682242128733,9.7147938519048
631,-0.048533026312993,-0.18932139881506,9.6583144099838
632,-0.1456410959572,-0.18990635859331,9.6118979194467
633,-0.026583547181704,-0.15509882995585,9.744589009094
634,-0.033375959825824,-0.24902359235761,9.8582158133057
635,0.043228833956976,-0.1152902400179,10.318897977695
636,0.16971327875937,-0.2425453278642,10.095103699641
637,0.1564307296381,0.090344237987283,9.747550620667
638,0.15948985805645,-0.092101082324272,9.445452979533
639,0.0017381444773046,0.17858606874047,9.390804592517
640,0.072028347785075,-0.033548478244108,9.8874734033299
641,0.18683232494824,-0.43714474956756,9.9713465917422
642,0.07523379812716,-0.056598910502336,10.41237019022
643,0.19321893186185,0.059783214702269,9.94220794601
644,0.04643334836345,0.11807847438657,9.8777720434123
645,0.19319553570346,0.04750783732788,10.014964624661
646,0.13937307114036,-0.058003817768049,10.032220248947
647,0.057594425936259,-0.081370405905636,9.6721046180269
648,0.14607957084915,-0.13369214133069,9.4317885382091
649,0.092812143715037,0.026371632763959,9.9346179962621
650,0.11139690718929,0.083241051335849,9.6385589082031
651,0.049562714313151,-0.019188982103185,9.6661910199038
652,-0.0060846878028866,-0.1327388321973,10.00486218943
653,0.059551325854288,0.04541419547575,9.9355575687745
654,0.067917051140734,-0.15568658296945,10.235733304071
655,0.065800178481733,-0.088974047155935,10.09291373861
656,0.12370996508737,-0.13619186612029,9.4462059806405
657,0.057057943688186,-0.019469735049106,9.213649641012
658,0.098664489903653,-0.014268452903516,9.7048633314519
659,0.048526413776611,-0.0032719806696202,9.5073754683226
660,0.24091784655023,-0.12766967359769,10.138421760658
661,-0.052372885277934,-0.29551444416733,9.8983225405472
662,0.13431603850565,-0.40122386628722,10.138663643048
663,-0.11944258193476,-0.56500381166078,9.8792394079422
664,0.068609326928155,-0.54405615458433,9.9999445868902
665,0.24552063843545,-0.58273813196663,9.9241198831146
666,0.10621091246165,-0.80765254415028,9.5855722618186
667,0.079969449157991,-0.61003038586275,9.3456910957026
668,0.2804132245347,-0.89523053107216,9.1661198020931
669,0.10428616656942,-0.68053059417383,10.356379409309
670,0.055588498081454,-0.87489322481963,8.9045497727238
671,0.15259054026785,-0.92472830628235,10.753371481458
672,-0.12023969495854,-1.0876249773901,9.905256574186
673,0.011723045088846,-0.66359523997588,10.168453679923
674,-0.11333613775351,-0.79802487045782,10.516454555891
675,0.17890782718307,-0.79216041452324,9.4016664780901
676,0.15100304340539,-0.98034247558865,10.145658664534
677,0.25593371788652,-0.69290504456123,9.3447995921668
678,-0.080396706735046,-0.91210300188722,9.3310469144428
679,-0.080606068849001,-0.61959511704156,9.3395563745229
680,-0.01924857797335,-0.70729767631909,10.681934741835
681,0.13433180701844,-0.78899426947839,11.058439729364
682,0.12885310537293,-0.56702684063609,10.054662344022
683,0.12318366898316,-0.74503467739355,9.3475050676007
684,0.088256078399365,-0.67466128086895,9.4586930997151
685,0.11522060873932,-0.71054124042694,9.7588508548851
686,0.037674839335159,-0.67137114309126,9.8717753272118
687,0.048902123975385,-0.57115957167582,9.7030852774614
688,0.028415116777162,-0.46521911789672,9.8074731386679
689,-0.050407068743504,-0.36930901938166,9.606433577441
690,0.12961267813169,-0.6644633432434,9.7163571572692
691,0.19358795175698,-0.39086303985771,10.09844563747
692,0.13672372100858,-1.0919863850885,10.017674159177
693,0.020965728487434,-0.89293773132504,9.4280520070383
694,0.13250862278331,-0.71875429462297,9.4218946165554
695,0.1124305147784,-0.63631012472769,10.080115987506
696,0.18212609593294,-0.6524554977409,9.9326875329182
697,0.093166600321778,-0.88908238960719,9.7688190198303
698,0.13325540332077,-1.0163937401548,9.5364450315022
699,0.090635081522456,-0.90790969308179,9.6982413585549
700,0.2120594584964,-0.97596186960844,9.8440556037176
701,0.11181901057162,-0.90597418402448,9.8395963750914
702,0.1078673405178,-0.59377447423472,9.8387197832181
703,0.21885180287982,-0.75415914868286,10.008829711813
704,0.17946448250268,-0.76275305580372,9.8244964688725
705,0.088409126576579,-0.55353071196981,9.5118892013437
706,0.20479734944659,-0.95215125451475,9.3340251195713
707,0.29327719215974,-0.47756128584516,9.9863534162087
708,0.3250478488784,-0.57398703019129,9.9244768819437
709,0.17743683243685,-0.809734831501,9.8976774713108
710,0.099444353067387,-0.46666550894385,8.9660025174567
711,0.25217167351555,-0.98821429290002,10.172670702808
712,0.34737149625005,-0.87187042261131,10.94034233063
713,0.37391162002225,-0.93859594542287,9.9865567371971
714,0.18949737863304,-0.68248435296819,9.4430417621982
715,0.19478536397564,-0.81534026676076,9.3227981331667
716,0.20686133802555,-0.82833087765237,9.6863344498901
717,0.28617240752509,-1.066639065452,10.147783829912
718,0.26967286824534,-1.2278941540293,9.8771495271342
719,0.2954176317528,-1.1762940624499,9.6591180855134
720,0.3344326510364,-1.1523730079677,9.4906314600161
721,0.24674320800367,-1.1932928870694,9.3474530355234
722,0.29225035294013,-1.0739298144597,9.464513711904
723,0.22582862533663,-1.0677992348884,9.6746855323969
724,0.17545179324332,-1.1259162840401,9.8247047341225
725,-0.082464194407621,-0.7361136223372,9.8148238707085
726,-0.23026017875561,-0.89294312992996,9.438711476971
727,-0.48750007371901,-0.75668445079636,9.6055218446228
728,-0.5126732741875,-0.83474460863204,9.6857421870236
729,-0.53305849989398,-0.88681489641023,9.77035952365
730,-0.69070762516484,-0.92359155542429,9.4341505571636
731,-0.53954307128587,-0.82713477718921,9.5090724838833
732,-0.35534713536782,-0.77601799243142,9.9385369752716
733,-0.36534939379517,-0.62051723003806,9.8039353813698
734,-0.35074269199301,-0.50269760406,9.3669750985834
735,-0.19959039584632,-0.62381486760973,9.4646264487497
736,-0.32688001122576,-0.80626840501794,9.6260523521379
737,-0.20397984884371,-0.72632876681133,9.6615580641783
738,-0.044728486779744,-0.47481806104335,10.280977999104
739,0.053615762980611,-0.90766238461479,10.255017177306
740,0.047820379106771,-0.4443685891442,9.8996576688161
741,0.025784287621771,-0.14173919022333,9.7005422146026
742,0.034285650532498,-0.47860711679605,9.7986413822633
743,-0.19094012003934,-0.47020090961785,9.3248484567827
744,-0.48393856178907,-0.39746145359893,9.2830839408251
745,-0.58957269509708,-0.37167746428723,9.3311390365147
746,-0.52070140032789,-0.099889415049372,10.056813420346
747,-0.52644984187493,-0.29444470386554,10.321045982137
748,-0.61265204308898,-0.078876332145004,9.9001341577272
749,-0.50472152598225,-0.31995885310413,9.7072030862381
750,-0.67060872585745,-0.18859378182309,9.5869499842423
751,-0.61854450190384,-0.21785104814112,9.5813314400146
752,-0.64673074872293,-0.16008870021551,9.6108213039947
753,-0.63525820189078,-0.20312995629934,9.6723280518985
754,-0.69602330648128,-0.0077903676832591,9.7077269917467
755,-0.6937059898812,-0.012544627375929,9.7723910065697
756,-0.66229264758219,-0.10772641064567,9.9075795294961
757,-0.62383689013648,-0.12420161678828,10.002177297384
758,-0.55515049546911,-0.23963047647125,9.7934666852362
759,-0.44671108173936,-0.17855330409008,9.5078125889755
760,-0.26944202408944,-0.15850505373572,9.5306372083007
761,-0.12311646217298,-0.025117653974596,9.8929651029107
762,-0.18265998383545,-0.14164943834083,9.7524403570829
763,-0.17511799526069,-0.057502822896964,9.6462100642898
764,-0.0060777809380476,-0.19637879159922,9.3621402684878
765,0.2234865064191,-0.032570596606078,9.6291248264541
766,0.40476280217478,0.56058184444118,10.17398157178
767,0.380505864069,0.076803458806035,9.9710243143372
768,0.3533532982115,0.054995450648593,9.3697165773877
769,0.41984417843807,0.060371401721222,9.5248785474842
770,0.48300551686375,-0.0042884536440836,9.8582893485069
771,0.58670300809662,-0.1149549321944,9.9993080641694
772,0.61738670516744,-0.10679854119964,9.9320663117535
773,0.57678006535506,-0.32007333770647,9.5377851568187
774,0.68104101319619,-0.64640330226427,9.7003759594692
775,0.55012322043303,-0.8752056310395,9.3881840946528
776,0.64351293450522,-0.96736602791203,9.7542610816588
777,0.74443379586746,-1.1634992613396,10.067015007289
778,0.64857526169161,-0.94080584376269,9.6922401501714
779,0.48341640592196,-1.0014281379827,9.1663545050294
780,0.30107132230904,-0.58745142965352,9.1830050666248
781,0.48569560311148,0.077760192127268,9.5198462328072
782,0.64068746797233,-0.5060891293552,10.564759830179
783,0.77164321704705,-1.0388455108471,10.992958216265
784,0.67073665611936,-1.6901927202377,9.6314950305928
785,0.59799452554399,-0.8222417155502,8.9040613027463
786,0.37947043648323,-0.37275504750992,9.3657046046637
787,0.53194969191579,-0.81294878953075,9.1433008965339
788,0.58354415706348,-1.0967212679729,11.221105504443
789,0.35648185607245,-0.63192305504138,9.2616662945575
790,0.067506598216788,-1.2691301378335,8.785393698507
791,-0.17796136209058,-0.53959107627244,9.9540128704236
792,-0.17165232038476,-0.58263594257838,10.065609413907
793,-0.3060317378843,-0.75791703652108,9.6179442869636
794,-0.35095196581569,-0.58160023735921,9.8501330119882
795,-0.3312312502491,-0.53035053631209,9.7581463364636
796,-0.53932614722491,-0.62809426398934,9.4301366740456
797,-0.41749546001607,-0.38111484984294,9.4227651761416
798,-0.31393044258818,-0.22241915221197,10.122747806845
799,0.04749665110098,0.060450529198376,9.5814352997671
800,-0.058412140586059,0.065976509879808,9.4003282741275
801,0.14779621247555,-0.52286302202767,9.7998326443553
802,0.22938644503584,-0.43709549224605,9.9944058145021
803,0.3087917909813,-0.22889224644371,9.7695818048468
804,0.31100787456321,-0.062089055176764,9.5209743021391
805,0.22279656500439,0.14714251379814,8.9587511291174
806,0.1275118289283,0.32143646687451,9.4880682391183
807,0.038839699097256,-0.14519346215456,9.7511020186484
808,0.31530993140686,-0.14068487867131,10.537363618368
809,0.10584243113275,-0.23432509546263,10.613024330513
810,-0.35302197738474,0.33891335680594,9.0082640061582
811,-0.32787992787915,0.68041971757162,8.7819862360523
812,-0.074923697781167,0.32441517052576,10.265325296694
813,0.060447525744211,0.21846404070956,10.662628268037
814,0.0085528980217117,-0.014452302301219,9.7994031064863
815,0.0013993282727018,0.0038065714861924,9.6534233772096
816,-0.024382291038954,-0.19115958773142,9.4035327382621
817,-0.14970482054977,0.015576052610733,9.1726776727719
818,-0.11804974772692,0.19301997601078,9.4742616990341
819,0.041081360046831,0.31329094606081,9.9510462950849
820,-0.19233515404831,-0.1550750761542,9.6543953485164
821,-0.22903085838688,-0.11122206714213,9.6877437892894
822,-0.033410656124148,-0.27138299582861,9.5447235372545
823,0.066920357684928,0.15169267313664,10.16371954277
824,0.0061878850480894,0.087630293464456,10.005809752032
825,-0.051818814233013,-0.03178664635095,9.643769184988
826,-0.00050321884242771,-0.299866899838,9.8285635245742
827,0.039249724859131,-0.33458903869367,9.9430415885121
828,-0.013105685343751,-0.24777844024936,9.6713503793338
829,-0.15320008373279,-0.28322439856743,9.6027759570256
830,-0.085085173145035,-0.030039912885024,9.8158554320727
831,0.15515535781268,-0.14776130549673,10.323691921222
832,-0.10112169786322,-0.14941757077017,9.6943031443399
833,-0.048695100843065,-0.32649625617964,9.9612646100911
834,-0.038035056872379,-0.034160009312201,9.8626503878072
835,0.036958764261705,-0.31992616245232,9.5661144748777
836,-0.011393661324941,-0.21962252447365,9.820746827043
837,-0.21336091420777,-0.43314494886582,9.7653295296223
838,-0.40008217069349,-0.65029209230107,9.4521161430366
839,-0.27390189978172,-0.65983161783489,10.10924315134
840,-0.22241549138367,-0.53616875126201,10.612869492449
841,-0.48704573904755,-0.46943498994744,9.7448293855257
842,-0.92474499802963,-0.30097006798692,9.0116699249452
843,-1.3563927189852,-0.28151982208063,9.0532381607427
844,-1.4684447688039,-0.55114497592191,9.8843060452875
845,-1.6635327482756,-0.74734824208266,10.29257751219
846,-1.3436602368221,-0.76096270435665,10.601392327347
847,-1.0940644738319,-0.32188312079401,10.747191910171
848,-0.67503459050609,-0.10401078826405,9.5272826257099
849,-0.6510811767466,0.40767336327017,8.9905755480199
850,-0.67300271618703,0.18623294621204,9.4564795385616
851,-0.59754189421751,-0.37296576057591,9.803246254639
852,-0.79505414980362,-0.48837248204559,10.131030708861
853,-0.63130038647939,-0.21357920673928,9.6574236405331
854,-0.43189397605732,-0.15207031656932,10.303584379411
855,-0.45881529894245,-0.046725651971479,10.218854195658
856,-0.85296814078678,-0.14686365056911,9.707541024835
857,-0.75916200216424,-0.16222007013951,9.2855743044832
858,-0.53467273137323,-0.29507513553194,9.7200947807794
859,-0.65017728771931,0.409896153818,10.739801389487
860,-0.74850307099168,-0.27524273929604,8.408625275602
861,-0.82351604653528,0.03681251571724,10.146624411567
862,-0.74321054105006,0.23450333496333,10.208239322948
863,-1.0345988162587,0.073211646256744,10.074714099132
864,-1.1340594662303,-0.038617491405982,9.5527485785248
865,-1.0354268830222,0.041957726987511,9.5815100204919
866,-0.71345865162466,-0.0018329589321407,9.7595345260362
867,-0.60080803634276,-0.12263917644747,9.7803018872383
868,-0.63098591598474,-0.31058658908175,9.9605305615516
869,-0.90892324701385,-0.32589485882255,9.9852334454755
870,-1.2146805434255,-0.32788086844012,9.8628508793172
871,-1.3475523825683,-0.38426945882078,9.6947157856158
872,-1.4076534390784,-0.17543477175842,9.9081140982551
873,-1.5096107901257,-0.33248893795869,9.779638900271
874,-1.5970802561014,-0.42211564657795,9.8635409524695
875,-1.7232241954274,-0.28695432425379,9.616366599471
876,-1.7684469366057,-0.27076481901634,9.8245959223734
877,-1.7895153701924,-0.37257470301005,9.7204336726747
878,-1.9384554059651,-0.51124671008739,10.148373954865
879,-1.9055506316782,-0.22833139141756,9.6779847555997
880,-1.5597091511938,0.034598116806662,9.7491376319394
881,-1.139836416474,-0.5341971294016,10.401660651535
882,-1.1082577325502,-0.21515015355816,10.938813825781
883,-1.1738151302881,0.15450946206781,9.7457023499811
884,-1.3900353660254,0.03679975396978,9.4258571910109
885,-1.5050090381511,0.031450069227701,9.8157858487627
886,-1.4193572048649,0.19904461100757,9.8203460393267
887,-1.7026058008932,-0.17017806204553,9.4839093499842
888,-1.7098867426274,0.251911699585,9.6923657695595
889,-1.956811144559,0.64018477818827,9.9269157119196
890,-1.894638915794,0.19076263391787,9.5013213977208
891,-1.7946940061913,-0.0047363674803146,10.127911534748
892,-1.5040531547108,-0.0043045368167447,10.015259074712
893,-1.365877034469,0.1616536057193,9.8769012060539
894,-1.4155245049552,0.57695400801122,9.7506911515574
895,-1.3012977310649,-0.09965942622123,9.7507532283244
896,-0.93919173867903,-0.52055527892086,10.085265238539
897,-0.56368298324096,-0.14385613513988,10.016499029902
898,-0.5077829867754,0.23234131930934,10.310508877235
899,-0.50096701355579,0.48622319715385,9.9919926085184
900,-0.58997759067537,0.80307744471351,9.7481200410941
901,-0.53718501521533,0.71788745467199,9.1610265052594
902,-0.48473236386488,1.1571632179765,9.7266693848097
903,-0.53003105009767,1.3190421517384,9.965293776751
904,-0.46276876025813,1.6096279294745,10.006704090565
905,-0.44971613488838,1.9471910475081,10.011000342655
906,-0.45260670015909,2.2327061703575,9.6747774254624
907,-0.36365543079444,2.5097506122094,9.4823479399048
908,-0.25723824408725,2.4981633025523,9.5877429997603
909,0.09692389764805,2.1234475670074,9.6158225213293
910,0.59684282307922,2.0032378736613,9.763105848079
911,0.61846221575213,2.1970416964165,9.8812176559172
912,0.75948855628178,2.4044123907405,9.5815037946912
913,0.92666359698935,2.8886708345828,9.7848770146014
914,0.7923044004857,2.7805251639037,9.3976520070025
915,0.8014531999069,2.0494493771785,10.118685526669
916,0.91095094740759,2.2939065103729,8.5777439887355
917,1.080557744565,2.5875137324074,9.6602997915767
918,0.9685686593586,2.7308435797106,8.8523175245671
919,1.1353210202979,2.936337144348,10.128984318496
920,1.0425901021237,2.5146401007126,10.367698248677
921,0.90576225557682,2.166126564084,10.049752122934
922,0.88197219788566,1.993145887881,9.4253287028332
923,0.91439895417986,2.2997256291472,9.3771208442076
924,0.96573663665013,2.5868360378445,9.9150528713232
925,1.0163013527438,2.5719635031516,10.266240153687
926,1.0169407729763,2.0634690875301,9.965114429294
927,1.0257693923429,1.04121687441,9.8955574515094
928,0.9690464958629,0.90560327385721,9.952761608088
929,0.84226880796865,0.80012261224388,9.3458166902606
930,0.80458053193544,0.70132679576185,9.3153915300309
931,0.90286261644182,0.44016919318253,9.3156050128685
932,0.9252791216568,0.019423234200217,9.8163116140919
933,0.99338075794078,0.044120785580175,10.140060306258
934,0.97797749437652,0.31259739593423,9.9753871199887
935,0.84763795473748,0.09679971498873,9.4871172279976
936,0.89929500891252,0.080668772547177,9.5361444244728
937,0.94411684264537,-0.021400651565944,9.5447463070064
938,0.92173570097354,0.058783640892118,9.7096811674342
939,0.93389052735111,0.11628740160113,9.9660780758907
940,0.92364849623197,-0.18809191660284,9.652412256344
941,0.97184947241842,-0.091450370384679,9.7821880559872
942,0.99316607549941,0.021841638573204,9.9700332087512
943,0.99532433999703,-0.070818821356779,9.7426994970457
944,1.0095668547772,0.061559450694098,9.7220817489906
945,1.0717480180241,-0.10321971275902,9.8410387337262
946,0.97908831017012,-0.052978034764675,9.6333676334222
947,0.93574964358167,0.056594297145874,9.3067516930967
948,0.93321371921939,0.039561973434602,9.5025877898811
949,0.90555476235662,-0.071464085104236,9.8483324268186
950,0.74681861128983,0.089103612972925,10.253464025456
951,0.44676422425757,-0.085529165756486,9.9862729824268
952,0.31302913781742,0.10880386784663,9.4464311250532
953,0.37055690961908,0.1274536434104,9.4287871314886
954,0.44563109734155,-0.15660995087438,9.9402143983469
955,0.4147636006671,-0.018416098512507,9.9877681909798
956,0.29151462932872,0.065090392329524,8.9685949486033
957,0.30936873630071,-0.12086173868335,9.7035238102852
958,0.37812005032294,-0.1178750757477,10.311657694544
959,0.28617952167009,-0.16859739173034,10.309784912957
960,0.2910198009226,-0.063963063380739,10.178158739362
961,0.17478045881461,0.09929963187328,9.7060939377176
962,0.26200906206845,-0.060736364887521,9.5909331760423
963,0.29199138132164,-0.19306646892574,9.5762272786798
964,0.15122728150552,0.019825114246866,9.572524019417
965,-0.10725904508916,0.10619400418781,9.1938938770494
966,-0.21443446469655,0.37209207777012,9.1773063230593
967,0.29347415335591,0.044528050026467,10.072397633792
968,0.54160635407495,0.24363588661677,11.450515834186
969,0.48211839221565,-0.14375957862458,11.704958921954
970,0.13950324324024,-0.39369574642133,9.4813575476406
971,-0.10741450123719,-0.11286843852326,8.6202115146643
972,-0.014286464830489,-0.042046113061642,9.105955627929
973,0.062807651206639,0.19746983182327,9.6418818524124
974,0.13794381881098,0.17868505139757,9.9507725038836
975,0.1543396538058,-0.03028638397419,10.029573618732
976,0.18331577656672,0.087977078167843,10.00883470402
977,0.13085964081312,0.035723619813533,9.9049759542564
978,-0.0033794757344991,-0.040519131447272,9.7904273742298
979,-0.43590822148895,0.11031071259906,9.9196479987218
980,-1.0375927178299,-0.012593105329315,9.6576624666542
981,-1.18199532116,0.017727833389548,9.8345408605471
982,-1.339692475462,0.12489415665102,9.7796279252209
983,-1.1116710485445,0.0064945484727884,9.5247801755698
984,-0.68495090079384,-0.05647144050847,9.6586847706078
985,-0.3494363944551,-0.05771661143828,10.014425129357
986,-0.36702379829353,-0.011971812368124,10.002571482133
987,-0.80662704972359,-0.07032246980934,10.029820375786
988,-1.1818829366444,0.12223296306134,9.8824169899043
989,-1.3307341929223,-0.059062879218694,10.042580173974
990,-1.5093828692779,0.072073075585278,9.9851941093637
991,-1.501661011171,-0.046430218017195,9.7282099191682
992,-1.6393431037722,-0.085712937764672,9.7551790997226
993,-1.7220839362865,0.14172993980185,9.973083506324
994,-1.8093996880055,-0.024759336382167,9.7374336089367
995,-1.8349181748367,-0.15820215141963,9.6823388649129
996,-1.7757816557752,0.10712728429693,9.9620779918625
997,-1.9160564375469,0.015732721745979,10.11991645703
998,-1.9141927374557,-0.19389770186379,10.162506314829
999,-1.8672554001189,-0.14680877357266,9.6790706054766
1000,-1.0596567888103,-0.024108004524075,9.5124835210486
1001,-0.40615950827809,-0.078696132622386,9.7405238830186
1002,-0.22120880653907,-0.2249084141623,9.997370470097
1003,-0.36366192364434,-0.039977792705818,9.9186975556167
1004,-0.4366682597619,0.10901406677093,9.9405453697527
1005,-0.62223719767715,-0.057268083547884,9.7713048546373
1006,-0.79439091723249,-0.10602512401588,9.7272330838018
1007,-0.97538144832236,-0.011232718361671,9.9691401907399
1008,-1.0384799904179,-0.071849722413587,9.8982098271933
1009,-1.0770626326914,0.099158198220235,9.6554857747193
1010,-1.2103977689563,-0.0091137901334296,9.7272155206495
1011,-1.4866424598163,-0.2160685248113,9.8812041818658
1012,-1.5688808642052,-0.18405609713077,10.327944027551
1013,-1.6742249431233,-0.0032541365381467,9.5896842756516
1014,-1.6839522943558,0.12797736520183,9.4848004137683
1015,-1.7173548691073,-0.10571868020434,9.9054914513351
1016,-1.3772116435863,0.061421990310307,10.273313139419
1017,-0.892555509214,0.13758777468202,10.323891798642
1018,-0.42671816812595,-0.099188171767415,9.9763018724742
1019,-0.15153054621808,0.15775679693002,9.7409828470596
1020,-0.034425596620652,0.55819698189946,9.5632511738206
1021,-0.082266064141804,0.78051469283926,9.5097668419724
1022,-0.07419719042307,0.99370542747365,9.6727515086092
1023,-0.13715143714424,1.09204832261,9.8983067720222
1024,-0.13817353161374,1.3317224578014,10.04794717861
1025,-0.21520952374719,1.5267190069108,10.030088970102
1026,-0.33735120717493,1.7471462711664,9.8987365609884
1027,-0.32650549093675,1.9611703409723,9.86132495047
1028,-0.31617654400323,2.1433592726842,9.7667786878895
1029,-0.30723362207953,2.0516646529045,9.7525858350281
1030,-0.1733356558843,2.3253490023944,9.8079619302833
1031,0.27742142394809,2.3642648384878,9.84405194823
1032,1.0421153307888,2.2782755056684,9.7800259931002
1033,1.2252169037719,2.5166575058441,10.002918042406
1034,1.2834073523275,2.5805877309753,10.211791689023
1035,1.1349325376045,2.7539149767684,9.7129258411002
1036,1.0781423216474,2.988318131316,9.725994882714
1037,1.0406561159779,3.0927556496391,9.8161602105911
1038,1.0972216790716,3.0150310073716,9.6946366192243
1039,1.1392517118007,3.0976549520725,9.9338678788706
1040,1.2269404721753,3.2227972992308,9.7085511708988
1041,1.2629474415767,3.5095569057576,9.8207111500004
1042,1.4749431104134,3.3021061404636,9.8266970854859
1043,1.6062695036287,3.2247401880366,10.336353930665
1044,1.58562685054,3.1824030677393,9.8662306651989
1045,1.4780184086959,3.2577529410338,9.8657994629278
1046,1.5414893870239,3.0673354894792,9.7752015916665
1047,1.5828675203249,2.5898789767485,9.5650753891101
1048,1.6287617035884,2.179760711322,10.153705327993
1049,1.5739036164194,2.0511097080267,10.753992188218
1050,1.5186061277993,2.2368920299537,10.106566525883
1051,1.3949813380937,1.8760248209438,9.7385992707578
1052,1.4629508412542,1.5248714653466,9.5137942498149
1053,1.4205517260961,1.4912091208321,9.7580520238922
1054,1.1939450393958,1.5826002603713,9.7728492045243
1055,0.97279963750595,1.4912377159212,9.8260778311504
1056,0.57719098535403,0.88346548014243,9.5046835207289
1057,0.3034225747538,0.42825682125285,9.6830896865484
1058,0.042637072061147,0.56720265957583,10.105650888488
1059,-0.052914114927654,0.59608747488541,9.6766764434639
1060,-0.054146255863473,0.81413893695311,9.6627114371875
1061,-0.036357529955472,1.0214226837583,9.7987603304831
1062,-0.055761252555217,0.98882986481167,9.6949961536516
1063,-0.069657942316023,0.81050005453458,9.6879787464123
1064,-0.025594740067819,0.72902452608918,9.9333903959181
1065,-0.0035146488561873,0.81219277378839,9.8817670964238
1066,0.029004166355608,0.91348282074419,9.8366820110776
1067,0.071409785377684,0.92349454436404,9.7872179597469
1068,0.1124483402577,0.58666824048497,9.8618965542552
1069,-0.20838772985202,1.1408412021832,9.6607858405247
1070,-0.1561948540222,1.4438098214432,9.9288754444383
1071,-0.12111035041616,0.55646133745012,9.5340328736802
1072,-0.077778572949889,0.75567727649508,10.27037085563
1073,-0.021304734811148,1.2312657038293,10.520283052234
1074,-0.16230008154506,0.96364565720413,9.6851099312429
1075,-0.22118423822522,0.72556325343655,9.6727262042494
1076,-0.2373974991424,0.75565124476941,9.7945421806414
1077,-0.34745482725397,0.93328297037353,9.6084606982867
1078,-0.45653549321406,1.233690485033,9.3709726703729
1079,-0.36554177710844,0.94745638813255,9.8703899446904
1080,-0.16997549881881,0.58271907120296,10.036855048752
1081,-0.20943440312668,1.1809415637606,10.230262775267
1082,-0.2049969028447,1.120601143565,10.18974880485
1083,-0.36834812906357,0.40986571474685,9.2910318400828
1084,-0.35242654203742,0.79657179738644,8.97749310222
1085,-0.17601481705685,1.0046352467541,9.4786025668115
1086,0.14539431919528,0.91444958533032,9.7198870027524
1087,0.26563842015115,1.0289536833079,9.8009883834133
1088,0.21052734345536,0.95567497637877,10.033829356403
1089,0.21111113604129,0.82002633253878,10.003587904928
1090,0.16198305599099,0.85933436947013,9.6921538682167
1091,0.20667128954733,0.91793176486352,9.6487448051129
1092,0.23474883530051,0.76790055870422,9.8803344704714
1093,0.33120941691861,0.77156160734104,9.9147375047049
1094,0.26452247979017,0.78609798794459,9.8606495339774
1095,0.31188799223655,0.74670594722375,9.8541669848435
1096,0.31697225900242,0.72180820961934,9.7347950678533
1097,0.42578609492209,0.66302364179745,9.7737955002753
1098,0.46217065606228,0.63277874646958,9.8736407252392
1099,0.47973759857797,0.71405918752802,9.9521745047541
1100,0.37242215042161,0.67227793944863,9.6513285884082
1101,0.25439651612145,0.73656457689999,9.7669036988605
1102,0.38811262387446,0.62438524879655,9.8916078500062
1103,0.35372117182925,0.51441946888478,9.9214900929125
1104,0.38670417964978,0.48262485942833,9.9311790747734
1105,0.32045436374168,0.55195601091842,9.7538552308891
1106,0.22495360071288,0.56820359475764,9.6832179408196
1107,0.15325493886616,0.43712394017203,9.7245900073043
1108,0.052426457284244,0.52398425888222,9.5852114090676
1109,0.10365980327952,0.41971646173492,9.7008069829542
1110,0.10715378755099,0.23989107339579,9.7492974246275
1111,0.087642581579931,-0.01140096411597,10.159634285244
1112,0.12387935419504,0.41278967619709,10.079952120498
1113,0.28637062441304,0.22567284125109,9.8556969984818
1114,0.067093515460918,0.015854801440267,9.9208169223135
1115,-0.16244250185376,0.51954546024981,9.4307041009319
1116,-0.043362407571557,0.52525202839881,9.4556315598963
1117,0.04146509095971,0.15232595142515,9.4201853297698
1118,0.010877625125887,0.50689342573088,10.704584522562
1119,-0.08050424655493,0.29382189620153,10.179877714945
1120,-0.13032789319232,0.27123796006835,8.9020223913504
1121,0.042135875154166,0.5040588877247,9.8482654453177
1122,-0.10794803503142,0.43389667947499,9.884599587239
1123,-0.14063180376421,0.35277010241439,9.9047727630174
1124,-0.24943612946884,0.36881108706847,8.8853378268335
1125,-0.19362481789259,0.18240002476737,9.7061583596664
1126,-0.075147512981088,0.38895598674018,10.105586725793
1127,-0.090658368630409,0.25493143594201,10.27384774285
1128,-0.19950104872981,0.056876376927842,10.007995873007
1129,-0.20406489340298,0.22872276535023,9.5843196675772
1130,-0.1790971699169,0.37560235420717,9.5834816143772
1131,-0.1579531846299,0.17455872274364,9.8330329410132
1132,-0.28421774684188,0.042261154198288,9.7059253708967
1133,-0.44964626642922,0.23163918714055,9.6729774052684
1134,-0.67211179315975,0.32300576890234,9.6188197186663
1135,-0.79676570959127,0.029387355648353,9.9842639779357
1136,-0.93687629329356,0.010292518364011,9.9843625346044
1137,-1.1171814431287,-0.032707526266718,9.8530144266011
1138,-1.2176595248152,0.13389332143985,9.6082452592324
1139,-1.3433432952957,0.18963370259652,9.6949510176844
1140,-1.4523906086586,-0.13330940769347,9.8796663459279
1141,-1.5099082557427,-0.14240009759089,9.8705233268541
1142,-1.6832688906452,-0.033839884763827,9.8559282258941
1143,-1.804022894625,-0.041986112605109,9.7353344598877
1144,-1.633824819179,-0.1595977125508,9.716835131621
1145,-1.2697036759701,-0.14638907124292,9.5996073297859
1146,-0.85245936639241,-0.12311761865,9.7325558205614
1147,-0.30599971817311,-0.14475719718614,9.9425809774448
1148,0.048185918495029,-0.28881780674255,9.9146231997859
1149,-0.084878475349323,0.042850389488224,9.7662208042107
1150,-0.026642416455803,0.20306095296152,9.7046014189725
1151,0.025475219017484,0.012921081012472,9.7296488226254
1152,-0.047744697440212,-0.42246770641325,9.5749064722056
1153,0.043635984599017,-0.44112734255938,10.149720953081
1154,0.044812266667749,0.35314462658286,10.542452602605
1155,0.16693845556539,0.18638349918362,9.8342736189447
1156,-0.061084002258619,-0.26379653220178,10.059791674102
1157,0.10261805649138,-0.26830033674071,9.7779075819712
1158,0.10792529921583,-0.36263006251607,9.5068748102196
1159,0.10582408408079,0.11205270001824,9.5805863331424
1160,0.42748495739835,0.31767381184472,9.2344163652933
1161,0.78326728765132,0.015223619331521,9.2352412716748
1162,0.87977370699142,0.0056895253374888,9.9555713491951
1163,0.95854818919088,-0.037921696864352,10.236902144617
1164,0.93625407222895,0.052642845849376,10.183703964067
1165,0.55964448622191,-0.12829656225241,9.6927806622409
1166,0.60402184952973,-0.19725873573928,9.3245041275573
1167,0.7098617428054,0.10870150512582,9.5890873581043
1168,0.81859690222444,-0.022973664422413,9.4447084696992
1169,0.86206396948531,-0.91157022952389,11.468112142795
1170,0.90031446591441,-0.42042514558759,10.091339734254
1171,0.75260005460949,0.058044020590595,9.9131026901919
1172,0.53505504098527,-0.17432488543012,8.6856095742871
1173,0.61881132946975,-0.031580246651921,8.8433638332435
1174,0.74362232336683,-0.20024344660956,9.4008254875256
1175,0.81607467675153,-0.37954033429968,9.8895277816028
1176,0.78508589661846,-0.22867140774692,10.28238023419
1177,0.62248035330288,-0.1479266048559,10.03197064348
1178,0.46211566879119,-0.090313176325698,9.9135885670505
1179,0.44072463872072,-0.15422827494008,9.6720921923424
1180,0.51930408258512,-0.20304996408471,9.8423583209458
1181,0.46812541919129,-0.01529195072226,9.8078937318426
1182,0.40677591737566,0.02857721411392,9.7705933852226
1183,0.37127078788417,-0.021951779776177,9.7156564925852
1184,0.31166237338098,0.085028990063976,9.1515227812657
1185,0.40167356203905,0.21862889744859,9.5793018065262
1186,0.44733654222446,0.085476485541209,9.6788157794043
1187,0.49073783715118,-0.16650867915477,9.804754298959
1188,0.50496204728791,-0.15981012558714,9.7449973097419
1189,0.58430155371005,-0.13230247009185,9.9120448401449
1190,0.61423284464409,-0.15727721719861,9.9073207888681
1191,0.65762076588799,-0.30316635930242,10.000957336125
1192,0.71218861890252,-0.1984030351055,10.034559196552
1193,0.79126794535473,-0.1707717985634,9.8512054050245
1194,0.68151021160653,0.0085285293099665,9.755561387074
1195,0.6213682231727,-0.45737675803699,9.2910467626784
1196,0.69150764219395,-0.25818205466184,9.2791337360932
1197,0.61565243354436,0.078617003501668,9.3803217893098
1198,0.78004230804537,-0.42381348287225,10.068008068573
1199,0.70636221611738,-0.44331968557782,9.7160310309873
1200,0.38044641309158,-0.22351675600482,9.4965988334263
1201,0.25520277943452,-0.14359258095221,9.3383048192482
1202,0.33550576781883,-0.36158533240345,9.5361762024697
1203,0.42213812623686,-0.27882297885798,10.362961843767
1204,0.44729019831053,-0.28912232566993,10.297160054815
1205,0.28149199857567,-0.1254385740763,9.6712183812037
1206,0.36479503585168,0.063583615927398,9.4011926365461
1207,0.19411082298165,-0.37998493767395,9.621308211077
1208,0.515653486129,-0.03974563341786,10.048466809953
1209,0.54841921367363,-0.16990679422101,10.070931965602
1210,0.36610068198328,-0.33060106886782,10.60468754956
1211,0.10637162862307,-0.13332801742755,8.9577212441443
1212,0.16382356364444,-0.38529952180105,9.0431634371139
1213,0.23026894190048,0.065709763759945,9.8578694661785
1214,0.37002510738931,0.09441667283734,10.181671515401
1215,0.40883157287647,-0.22334818848054,10.05840381762
1216,0.28844005382775,-0.27565703724388,10.073830813211
1217,0.17958812086538,-0.32809722486681,9.527142429383
1218,0.17772206138399,-0.27021349799027,9.4371681643584
1219,0.28880597154993,-0.27069470736615,9.9075832109859
1220,0.39915578105258,-0.22311457228248,10.317356777865
1221,0.35457433485241,-0.35979460836461,10.084488256321
1222,0.15409294316596,-0.11146993140942,9.5494670589914
1223,0.18878637700665,-0.2323565510819,9.5398624269325
1224,0.15652220249769,-0.33732137998915,9.7740647594175
1225,0.18109084047827,-0.50009304410092,9.778688931828
1226,0.23959554314667,-0.2270909937056,10.043599866345
1227,0.23240845441888,-0.38684278403057,10.008986528377
1228,0.32004911877962,-0.44003797305702,10.062047174244
1229,0.25654466162378,-0.54019436560644,9.9355288896584
1230,0.29138056307152,-0.23494651502045,9.9204410075705
1231,0.13944236398011,-0.57281817777249,9.1094796517554
1232,0.27603891721021,-0.44312235322894,9.5418252988645
1233,0.30086764739812,-0.19946350980309,9.9490564313023
1234,0.24797626073178,-0.34811942149401,9.6733470187397
1235,0.15236016193216,-0.40691238222515,9.5435650481357
1236,0.20067861203861,-0.33057652043503,9.668656155562
1237,0.38006444988317,-0.33496756059465,9.9165665261311
1238,0.27946825657368,-0.34916878612427,9.9139252132042
1239,0.10837007864754,-0.20020958755722,9.5860711236276
1240,0.010569452741705,-0.60490360662321,9.1342084741422
1241,0.2709984275991,-0.19771130195348,10.796400808104
1242,0.23475750680794,-0.34644865961086,10.400179944077
1243,0.16630561277836,-0.23432101512644,9.6678818853285
1244,0.22165100589629,-0.34469338697719,10.03307677184
1245,0.17201570746449,-0.25502159116526,10.10418118331
1246,-0.10907303302437,0.45791167038889,9.1351974860688
1247,0.15999415582976,0.53081212579558,9.1269148882032
1248,0.14499320148985,-0.36258078023038,9.5209794319724
1249,0.20903891864195,0.045592999727833,9.3316762085653
1250,-0.13876620593488,-0.1329495436342,9.3629677779168
1251,-0.090745558104594,-0.27488286642333,9.4080314192378
1252,-0.10551080565598,-0.31292787447314,9.8800481384365
1253,-0.21113176253972,-0.22123593608861,10.010815379248
1254,-0.56784846332483,-0.29822772123641,9.8928828053035
1255,-0.99520373590434,-0.37369151347637,9.8091667393595
1256,-1.1508073603228,-0.40991669914766,9.8712990577147
1257,-1.1638474214967,-0.37014720852238,10.171960220696
1258,-1.1366078838104,-0.35731280085757,10.213807567511
1259,-1.2110113896787,-0.42556409859174,10.064080864282
1260,-1.0524498688124,-0.4502476045624,10.23846148149
1261,-0.61735475617788,-0.3773498911529,9.4352509031314
1262,-0.098051999030383,-0.41404707950918,9.6221836320969
1263,0.0067553214038999,-0.35583721478686,9.8447232547094
1264,-0.09429142130163,-0.17208536215018,9.9739238300823
1265,-0.22577486158979,-0.14318539947892,9.9002903703542
1266,-0.40335316243508,-0.014976201907431,9.7373621205924
1267,-0.48234062049019,-0.063422504661042,10.013051569506
1268,-0.54717240634609,-0.2542608407198,10.051768924623
1269,-0.66214608577032,-0.27077034780947,9.976064211712
1270,-0.69895834842964,-0.0071388683072749,9.9611977096145
1271,-0.91732629730554,0.037908250543255,9.7785147704193
1272,-0.91959185438216,0.13202812290661,9.7622559438282
1273,-0.9853942452345,0.20847521432168,9.9615519272546
1274,-1.0140579681481,0.19580833842163,10.121777853325
1275,-1.0393442185228,0.044405257404542,9.9618853734919
1276,-1.2615137479574,-0.055209174278546,9.5620132998412
1277,-1.4266986388995,0.12413867203801,9.4644193360863
1278,-1.2119783729867,-0.3228713217318,9.9648172292209
1279,-1.3063830371062,-0.30278324204026,10.003831419163
1280,-1.4170814788805,0.024189546320208,10.08466195703
1281,-1.5206585767905,0.10412033280489,9.857858936161
1282,-1.682391811729,-0.4025089733474,9.7776092220072
1283,-1.639593265503,-0.54110672538257,9.9836041882289
1284,-1.7406525184765,-0.33449145438596,9.9389674330968
1285,-1.784809787722,-0.49644496130611,9.9834643040617
1286,-1.4509231347444,-0.54199195016525,9.7415642653371
1287,-1.2075998488881,-0.66894767772063,9.8166208037474
1288,-0.92651324297435,-0.62517673624579,9.9654261734554
1289,-0.89924237968626,-0.65481194874128,10.237396897657
1290,-0.83205030232883,-0.65990431275719,9.9630329049547
1291,-0.86320379262827,-0.96361000907111,9.8596078449167
1292,-1.0244879358053,-1.0955001138554,9.6580177680491
1293,-0.97561403896451,-1.0245489669731,9.7487629950328
1294,-0.9569149977598,-1.3102552326211,9.6095140668134
1295,-0.79279342603981,-1.3786712844267,9.2222838309379
1296,-0.62804817682337,-1.2523436254137,9.6522788691492
1297,-0.51038826526803,-1.5714233831011,9.8387604460099
1298,-0.3747558373459,-1.588008571174,10.148258744849
1299,-0.45324302179349,-1.778074768339,10.028344059124
1300,-0.41434846096952,-2.0574548731825,9.7253125251827
1301,-0.51934650091978,-2.1952204112909,9.6831813333766
1302,-0.29677743904154,-2.2368179508109,9.7012014980707
1303,0.22381691766733,-2.5062842885319,9.5392672420025
1304,0.50448379971179,-2.9386436225377,9.814543375663
1305,0.54274426537928,-3.1226221319573,9.6653903978365
1306,0.47639440608353,-2.6212849573565,9.9968162165629
1307,0.62620862494057,-2.5044764985228,9.8916624634301
1308,0.54916875862578,-3.4231146444993,9.5390845898863
1309,0.33847610840455,-3.9256181529416,10.005084144634
1310,0.21398812756878,-3.6461786825781,9.810503545282
1311,0.37257580268039,-3.0108048494923,9.9594983552249
1312,0.39414049292949,-2.8260105115556,9.5874104091577
1313,0.36811982121151,-3.5535732350752,10.237814100579
1314,0.2758726396827,-3.9356343792541,10.339678987616
1315,0.58781357612224,-3.524442517395,10.275732288673
1316,0.87059256913253,-3.7748687939874,10.523431414264
1317,0.87254043533357,-3.2525809865686,10.249072522737
1318,0.76580592859055,-2.3450594829948,10.290778849883
1319,0.78272026731313,-2.3099722112384,9.7597063685177
1320,0.73867532850127,-2.8433114215184,9.5315434262248
1321,0.87417921870246,-2.7580713179714,9.6142973600824
1322,0.90501197824511,-1.7742055361843,10.700738541864
1323,1.0147629110104,-1.4899073741982,10.534803651324
1324,0.94224222309811,-1.0348201357073,10.099958050571
1325,0.89179565951322,-0.96641327586143,9.6557224352556
1326,1.0211826263474,-0.82087417344683,9.9458517180352
1327,1.1559873081834,-0.65845516848253,10.226494652756
1328,1.158549093006,-0.38672424082953,10.379231009512
1329,1.0174654908179,-0.42003644879292,10.377190527852
1330,0.94174681754187,0.078827996708958,10.008345223939
1331,1.081271779817,0.48456186132937,9.658146690259
1332,0.91841816059735,0.4069701107327,9.690033304968
1333,0.72453644730744,0.68279126740958,10.302703723004
1334,0.54940174850757,1.9387198536324,8.9091181417821
1335,0.43727429525964,1.2883844851659,8.2048044121724
1336,0.4392885327325,1.3025350014143,9.6952461030961
1337,0.56218624156767,1.5948542397732,10.443810278517
1338,0.36167134902507,1.7445028315295,10.558517805729
1339,0.24005636026189,1.9554603717984,9.918609666949
1340,0.19740876689131,1.6147800378921,9.8506239063072
1341,0.22865044114457,1.8438224675158,9.9314260450162
1342,0.26998914284291,2.1053303163839,9.8650952981859
1343,0.26592322738061,1.9935184178553,9.7555256458481
1344,0.34802241558717,1.8463072028919,9.5433408096802
1345,0.35440593682558,1.9492235815893,9.7495182941209
1346,0.34929596768964,2.0879778628799,9.5971863369798
1347,0.40755950883332,1.9091729534204,9.6391619099859
1348,0.45536005134873,1.9520653784934,9.6786890898571
1349,0.48272089483405,2.2016670713527,9.7590154085299
1350,0.50356226170392,1.9881706373449,9.7017292830222
1351,0.49540233761444,1.869291520936,9.5270357740524
1352,0.57993939804705,1.8486438255664,9.8829301049198
1353,0.64262638089844,1.9156358595195,9.7979619487344
1354,0.55805412236281,1.9796076733607,9.7080587152993
1355,0.54504075635173,1.7856637664188,9.775911432987
1356,0.63328068752905,1.9717950145642,9.5714977228819
1357,0.59960213102099,2.0396164075406,10.047939961867
1358,0.57086709560002,1.7558025712119,9.9635755475332
1359,0.38724220020374,1.7022757816802,9.2345131908187
1360,0.49814549016035,1.7027233150061,9.7428734665
1361,0.57289645637334,1.481097852059,10.178236520595
1362,0.53913003018913,1.4147119485017,10.244822496789
1363,0.52417190463839,1.2260628942672,10.063124894568
1364,0.53051288375819,1.2822086589293,9.7950433777847
1365,0.46361086822912,0.96012525814407,9.7469830966709
1366,0.46280961732113,0.84166028779696,9.7792396223318
1367,0.31839173254954,0.71888239309393,9.5223884750152
1368,0.32182103866926,0.53631868563206,9.7108208020524
1369,0.39829050529372,0.44368034985373,9.834212885997
1370,0.24613047609924,0.22242976012937,10.188042041822
1371,0.066748104385963,0.20239111951932,9.8743954648007
1372,0.12872504672073,0.64000839742855,10.037677938884
1373,-0.006417811693888,0.46060252142215,10.400902927926
1374,-0.0050373413457035,0.43867394612749,10.373226403404
1375,-0.33691281938914,0.53682740042438,9.1516841414477
1376,-0.26270264049142,0.41157014370542,9.3041844346622
1377,-0.27414635512498,0.051073238477074,9.46602992377
1378,-0.22395891870614,-0.077879832498998,10.08712575018
1379,-0.18678475136605,-0.32240478800187,10.294428939164
1380,-0.23215341016845,-0.26064064624041,10.225238222985
1381,-0.31537414837509,-0.085932039671616,9.886893539499
1382,-0.29839724954815,-0.27816198707383,9.9142417045022
1383,-0.30489310910797,-0.23018450337097,9.7769813636003
1384,-0.26775401327225,-0.18119506116424,9.9644817285595
1385,-0.1556286070565,-0.5298455819475,9.8572373783883
1386,-0.1370091902534,-0.55013951339338,9.9904519323284
1387,-0.10345231423052,-0.57101504775847,10.070384969991
1388,-0.12588980578919,-0.83641879179483,9.8412697471183
1389,-0.022721794681393,-0.61116857400457,9.7691459949667
1390,0.040180283757556,-0.79606474195111,9.9621757403891
1391,-0.031384440098366,-0.92049329847762,9.9301401331298
1392,0.065868555560913,-0.89231232826446,9.7678485615156
1393,0.049568384333502,-1.0643973828682,10.005426630992
1394,0.005302953225808,-1.2571840728577,9.8578930922963
1395,-0.099214327837906,-1.3008010711501,9.526549650586
1396,0.027800326599306,-1.3869589796558,9.5792825346244
1397,0.10939684823885,-1.2045438227901,10.006481658403
1398,0.02826759515679,-1.4155026357383,10.025482641285
1399,0.0029403804565,-1.2570128660316,9.6679319130833
1400,-0.046856923610196,-1.3491169546323,9.5087947278498
1401,-0.022474163556279,-1.303595293824,9.9205582740808
1402,0.062184941538325,-1.3726465811994,10.013189766714
1403,0.054771266686557,-1.2488799792383,10.256966945029
1404,0.14451291444895,-0.97824177199725,10.264245752117
1405,0.062126379978592,-1.4236220087583,9.4814905440407
1406,0.017807295539763,-1.0679408672475,9.2399314986007
1407,0.25042439178657,-1.4827660390206,9.583258553206
1408,0.18205436536997,-1.3370890040684,9.9482579083153
1409,0.20838141547448,-1.4254574036746,10.139897502055
1410,0.15863559340593,-1.3938940990468,9.3716416858483
1411,0.1580048943632,-1.5632802959297,9.8267988588252
1412,0.44132992713142,-1.512925084316,10.261428856155
1413,0.38353329844088,-1.6936321529242,10.506236419319
1414,0.3545096838598,-1.7673507959538,10.327571701206
1415,0.26011199218887,-2.090750358665,9.1497067768451
1416,0.34531475652601,-1.8680740953163,9.7259751425496
1417,0.37502797436069,-1.6150263018847,9.94328310676
1418,0.42934461238343,-1.6240936840193,10.052169961416
1419,0.32514280472567,-1.8786755962477,9.8181066406572
1420,0.4233882916098,-1.8636670606171,9.8573271557309
1421,0.41167920122523,-1.7367887089048,9.7872568673912
1422,0.45783696371097,-1.8853556817363,10.026167589598
1423,0.25016533966719,-1.8577583867306,9.7063857410541
1424,0.23325082472681,-2.0248322944097,9.642686209364
1425,0.067600987505342,-1.9032527784888,9.4111600042803
1426,-0.094557272275186,-1.9362538907504,9.9647059964832
1427,-0.10811943687873,-1.7983552122703,9.6248984357487
1428,-0.12131759492485,-1.8578165326773,9.7894880643742
1429,-0.0085277296099852,-1.9526020998492,9.9813638038265
1430,-0.015440296406204,-1.9105101513184,10.100485135157
1431,-0.083266090636449,-1.6913364656889,10.005897437186
1432,-0.20356305681955,-2.1480003054178,9.4757094417135
1433,-0.18313058810544,-1.8137778256387,9.3051476926627
1434,0.13889460248727,-1.6735645751132,10.018915011296
1435,0.19723774232505,-1.5206030054253,10.185453554051
1436,0.12212444902572,-1.5266260000905,9.8924386615722
1437,0.11100528110802,-1.8732215682404,9.4899236772902
1438,0.10802068409629,-1.7583707917463,9.5893097372358
1439,0.019604060838204,-1.9534572107281,9.9157780143591
1440,0.086136996501014,-1.5541485120259,9.7667214291636
1441,0.049487605460559,-1.6475214040415,9.9304989685272
1442,0.024610310669725,-1.5424448869203,9.6805274490469
1443,-0.016471482293766,-1.3576514918558,9.3487001769006
1444,0.016977315807903,-1.8777947332765,9.8597897539002
1445,0.081719043944471,-2.1139046309018,9.9701522366379
1446,0.074263893095745,-2.0544281105432,9.8943327305375
1447,0.11528516819516,-1.8506166797023,9.470381114592
1448,0.19003277908714,-2.007423435688,9.547926173075
1449,0.19569168590109,-1.9199636721797,9.662458915969
1450,0.27449205925855,-1.7399209493885,9.6386117348014
1451,0.35760506060128,-1.8113542429794,9.6956440691545
1452,0.42366914333002,-1.8925019413831,9.7850092023333
1453,0.4258774086186,-1.9869594503595,9.7966778602699
1454,0.47168224527876,-2.0098763159968,9.8361209748058
1455,0.5131533618112,-2.1186519892238,9.8507261317965
1456,0.53432090300164,-2.0347153567082,9.7776150761866
1457,0.56982826355242,-2.0593267106414,9.6790903689396
1458,0.61820501624586,-2.1031966369971,9.6910137560002
1459,0.63719143806746,-2.0640738940748,9.7479973649307
1460,0.6105234247856,-2.0912311705732,9.7155166812599
1461,0.37717855328561,-2.2604999591502,9.8150191006347
1462,0.39525383185464,-1.9446230924381,9.7505467229758
1463,0.70396867123221,-2.2403306061513,9.8842964018201
1464,1.0131101618751,-1.8881483514782,9.9585447329138
1465,1.2153193083296,-2.1390643279226,10.171918543322
1466,1.1257223332822,-2.1450785011927,9.9255809854949
1467,1.0933131501183,-2.1007167455322,9.6945328419782
1468,0.85893925825067,-2.0844686417064,9.5234770857143
1469,0.65785627863891,-1.8856125409006,9.7632488857579
1470,0.6455595519527,-1.9703766238434,9.7600101512166
1471,0.50044398582497,-2.0470848032353,9.7079441874509
1472,0.36459246658862,-1.8693969516265,9.6819508589932
1473,0.31847523030613,-2.0309996746787,9.9585863194534
1474,0.37568043548995,-1.8801292115587,10.099016308465
1475,0.25598073924382,-1.8223917562425,9.805829402016
1476,0.19939446550835,-1.8853125209608,9.7391245787143
1477,0.37743840222383,-1.7133972906763,9.658417538667
1478,0.26495119337664,-1.7923152089731,10.029045439149
1479,0.1733889584787,-1.7597555388042,9.7634407905429
1480,0.13393758155218,-1.4615301347662,9.8409724751583
1481,0.26443574099426,-1.2946201489124,10.372646455372
1482,0.16550892539593,-0.8469788863897,9.619511381662
1483,0.047431582114442,-0.65548642097739,8.9137731532275
1484,0.2076334031193,-0.74052145426301,9.5294841733443
1485,0.25410038123932,-0.78268602482095,10.172944422431
1486,0.29512570223563,-1.0890965375945,9.8841757882171
1487,0.30471392073603,-0.89013933947673,9.9862983051206
1488,0.28736446263052,-0.91902714226512,9.8053186521036
1489,0.16557133526789,-0.64050614219434,9.4622583117248
1490,0.18945246361106,-0.50037779231217,9.4105971915947
1491,0.36377687495059,-0.18928217533709,9.8727156143393
1492,0.29222234468986,-0.12152781205457,9.8628158267742
1493,0.26106408223519,-0.16864041891112,9.7795228612061
1494,0.25613866793533,-0.26133073964047,9.6324368262493
1495,0.36766118476948,-0.29601343343566,9.6602928920996
1496,0.41299354581564,-0.24885454963801,10.138074710756
1497,0.38969696597478,-0.13790795652075,9.8334707833425
1498,0.43183160288265,-0.24671897410049,9.6623396882362
1499,0.4197334371137,0.044524253027047,9.5892726473381
1500,0.4953379290677,-0.10146058373962,9.9328207518038
1501,0.51880216791458,-0.16945030812586,9.7784746384477
1502,0.44265458039332,0.084866308669371,9.9910469944655
1503,0.50931203154087,0.081465737830383,9.4592661561295
1504,0.49696678919742,0.11789688508285,9.754729394013
1505,0.47268717918341,0.17672576117885,10.042402515645
1506,0.4401240790932,-0.022053525880337,9.9834114114696
1507,0.4029671652296,-0.24243180286496,9.9245011267797
1508,0.26556195810626,-0.13120993513657,9.5737193104905
1509,0.21195885057158,-0.069449016552759,9.4884727152771
1510,0.23737670276137,0.0065573765213625,9.9161910876251
1511,0.38259156701159,0.031734149341711,9.9955494553606
1512,0.094852769361045,-0.20640285093468,9.8046040132293
1513,0.12436498980545,0.23630614139672,9.3228302402827
1514,0.061782591048907,-0.40102701073972,10.076467657464
1515,-0.003497461112308,-0.035475783533096,9.3894119367816
1516,0.14166144823915,-0.55558734588847,10.302391650423
1517,0.076653961289435,-0.38241118148154,10.005706713059
1518,0.17865920218977,0.012216501224286,10.091358967843
1519,-0.22559577325826,-0.16396060678617,9.7563138392866
1520,-0.15814131610887,0.30742532471285,9.0781252029122
1521,-0.075410371762273,-0.4611083550289,9.7247189423035
1522,-0.026138288201599,-0.27751631064798,9.8889276916974
1523,-0.0039827528628134,-0.21845313050893,9.9065548263846
1524,-0.037037484654053,-0.13879943274739,9.6961541907041
1525,-0.068403509427722,-0.084947248291997,9.5554701045177
1526,-0.045487479299475,-0.13523282227604,9.6947944359332
1527,-0.17104405577526,-0.25149152053588,9.819906617653
1528,-0.063172388482946,0.3293704234892,9.4632501631949
1529,-0.0016100698708024,-0.51796106092684,9.9524235421152
1530,-0.079192552469043,0.95993687990891,9.859159573541
1531,-0.033012770929066,0.018080645423109,9.9060952340425
1532,-0.13137766869386,-0.1849509035032,10.069732462705
1533,-0.023224003157465,0.067066577814929,10.194184429796
1534,-0.10034392189957,0.0099116244281854,9.9072952994144
1535,-0.056478246773997,-0.0131049993132,9.8491787969163
1536,-0.078754214554912,-0.15881193487446,9.5285660218398
1537,-0.12813239315754,0.10903974747593,9.5425251378464
1538,-0.078065496786786,-0.12158990301708,9.8039000963087
1539,-0.077963958044825,0.016168368990712,9.8142149906137
1540,-0.072064758491661,-0.12073490634566,9.8301968199537
1541,-0.061511136527046,-0.023000824276342,9.7917860751928
1542,0.073279790892337,-0.095045170660726,9.9078798945327
1543,-0.16919753375595,-0.32378720656259,9.8955764894209
1544,-0.29255621943915,0.024359464516281,9.1689716396713
1545,-0.015083609091125,-0.37667367444116,10.115682095509
1546,0.069301828342437,0.004292220997607,10.821112126298
1547,-0.011060943404984,0.19292653528477,9.6870559876776
1548,-0.14115760957971,-0.16017005118342,9.3003907985119
1549,-0.2682037653223,-0.054125625571817,9.4990769632326
1550,-0.18435621263532,-0.31759595301824,9.7006506059601
1551,-0.13163579771234,-0.18267958073626,10.378458617649
1552,-0.080452791305954,-0.16322145541933,10.404356179205
1553,-0.16551394215751,-0.20755002835708,9.8091726440961
1554,-0.1766568480122,0.04076651611379,9.6880082889072
1555,-0.22060905794068,0.14205990473758,9.5971297027219
1556,-0.31966076954888,0.069993975852056,9.8923170751514
1557,-0.059857451353183,-0.30776512263802,9.350613640021
1558,-0.23520439934709,0.025150857534526,9.9486070197418
1559,-0.1656717566311,-0.14165918303989,10.360064516454
1560,-0.23417151562488,0.46599480998741,9.434569903054
1561,-0.28959292730797,0.065971725184883,9.8256663482818
1562,-0.13059548101205,0.10556418379931,10.097929501352
1563,-0.24784708036379,-0.063235058682321,10.024606317362
1564,-0.37116601590045,0.029327207536297,9.3711421132044
1565,-0.27754769365623,-0.092175114318209,9.6448038847254
1566,-0.26164831049953,0.10999568634233,10.167735008344
1567,-0.12794983707203,0.41203552029628,10.08905783626
1568,-0.21016637328631,0.18899263628893,10.100151351685
1569,-0.23737118823505,0.066850467338743,9.7888510682536
1570,-0.39993231599317,0.1619051990949,9.1498900931723
1571,-0.23837403076494,0.29582706842488,9.7591007887317
1572,-0.23969939916498,0.2993849604754,10.084297588289
1573,-0.2510678159495,0.25604666978954,9.8466850598316
1574,-0.37748631602684,0.2044548645046,9.8402935214204
1575,-0.25699362706893,-0.064106726949662,10.125402760957
1576,-0.2414317262643,-0.01508666277489,10.198737721781
1577,-0.16091575256497,0.046114707108269,10.262049865318
1578,-0.29709857274811,0.0026730654292204,9.5261844075757
1579,-0.3020260241094,0.33411587353024,9.4860242016393
1580,-0.28151916860987,0.0072107456917984,9.7755800366349
1581,-0.33143332267437,-0.052082595763404,9.8657090803512
1582,-0.13501088122757,-0.12355982779527,9.7231713320367
1583,-0.19415350255918,-0.5674418948404,9.8329724482489
1584,-0.26612004462501,-0.22242642880968,9.6424707018298
1585,-0.20000790740497,-0.52598345841963,9.9907903544691
1586,-0.12589100917926,-0.39550052563029,10.316740544479
1587,-0.28403887549099,-0.16094834147812,9.7692192096067
1588,-0.36127504687911,-0.2183142471312,9.7721225819388
1589,-0.41312933479933,-0.061721883718706,9.4198391868618
1590,-0.40876721595203,-0.33583789925041,9.683983865678
1591,-0.24259428139954,-0.3102541427434,9.9820677759821
1592,-0.23998313942477,-0.32813373789915,10.156859310833
1593,-0.27050963445884,-0.18651635661284,9.8558367349468
1594,-0.34972832664554,-0.35406919605373,9.3181406465562
1595,-0.20306777804117,-0.070511622202664,9.8988234793228
1596,-0.37262604742844,-0.24821170190649,9.8447074900963
1597,-0.45533412769532,-0.29364900358435,9.1103087417705
1598,-0.30418704888793,-0.79055096685961,9.273469914584
1599,-0.10154809856769,-0.43997920493704,10.924154904739
1600,-0.11546114799294,-0.34571032487982,10.730389380848
1601,-0.41597772723246,-0.56401410943563,9.2699313663681
1602,-0.46898799506276,-0.48342337346502,9.1735136996874
1603,-0.39690984413335,-0.33189428176664,9.5503999433271
1604,-0.081790212653514,-0.29721901352883,10.395961586375
1605,-0.14640452031349,-0.61497372430569,10.262893844278
1606,-0.34659943846356,-0.88718983056946,9.6727619908337
1607,-0.5145126600489,-1.1633713087517,8.0570440142127
1608,-0.28825797511997,-0.67146112096961,9.8937447995032
1609,-0.22497351421565,-0.71575595664539,10.649201532355
1610,-0.25360486296541,-0.73544267409702,10.352993452472
1611,-0.24949359479417,-0.77043016929392,9.9179515628148
1612,-0.28494458695867,-0.62667250123731,9.9006175645844
1613,-0.32627667201533,-0.56528882217082,9.5408546413554
1614,-0.29516176376369,-0.69517818313625,9.5083625664727
1615,-0.32725558673234,-0.60085645470871,9.6056126662286
1616,-0.30769082600022,-0.68219061705561,9.6813122709143
1617,-0.23839429727063,-0.52765421579258,9.9020661223233
1618,-0.28091996184026,-0.56458998171185,9.8375682020605
1619,-0.2250934630713,-0.43438951833902,9.6981929230445
1620,-0.057798375377878,-0.49615898573645,9.6975614653274
1621,0.1575818145689,-0.26652967642464,9.9747824667111
1622,0.1421631022291,-0.041247145481164,10.029455267158
1623,0.08630713906254,0.13947207167832,9.4066483453022
1624,0.074908776593376,-0.0060915343302457,9.594080292614
1625,0.031146016603046,0.052674428609623,9.6850520043306
1626,0.27249752867284,0.09698196115245,9.784608018036
1627,-0.065287112130128,0.33650236562547,9.5681702884345
1628,-0.15751809098257,0.52063924353496,9.5518205903106
1629,-0.19218039486854,0.27264668614326,8.8739557141558
1630,0.06980529959896,0.51380477459174,11.420345809309
1631,0.15047778028179,0.45380681733054,10.767639576359
1632,-0.10486423538123,0.134328137482,9.3772155782212
1633,-0.34599683325305,0.37492892080429,8.3866042082791
1634,-0.25542576643048,0.56721865557394,9.0480464257435
1635,-0.10612324958977,-0.0057553133638023,10.149044639559
1636,0.26563381482179,0.51019158295592,11.62986205775
1637,0.20303191367861,0.40058054408712,9.8030208376839
1638,-0.12008649821009,0.032027580859976,9.2416588892878
1639,-0.31189741103997,-0.052633309689874,9.4706424176323
1640,-0.34732061645816,0.0094389604455038,9.3878614570649
1641,-0.17628380149777,0.18354894412219,9.8979044304734
1642,-0.16304262135945,-0.1887849598445,9.9505514252654
1643,-0.13832908613832,-0.17831755057415,9.7834713338905
1644,-0.24810643703987,-0.45853337476731,9.5107958262275
1645,-0.097875228413429,-0.61569645984456,9.6047700172995
1646,-0.040103510327982,-0.68184820909814,9.7351413312825
1647,0.0067149487775843,-0.86726143074047,9.8452738681155
1648,-0.090805280151402,-1.1348598462154,9.9048814991189
1649,-0.022421271997717,-1.2650506101712,9.7287452414544
1650,-0.016793804144193,-1.5747614661282,9.6647282585616
1651,-0.02908488788317,-1.5117541425632,9.6162670302587
1652,-0.020315937480926,-1.2412715899905,9.6214704124212
1653,0.07152147404334,-1.6336798941065,9.79686792447
1654,0.097618198721011,-1.7274135183503,9.9016018630127
1655,0.098125663154064,-1.5460402407199,10.039606662022
1656,0.048156370410568,-1.8297568575457,9.8032954617786
1657,0.12079744995847,-1.7864276797953,9.6256459054826
1658,0.29251241013172,-1.7314450518649,9.8947492826751
1659,0.36679396117993,-1.6030812220927,9.9358625011991
1660,0.38224550978894,-1.6449085707389,9.6468115652118
1661,0.32712885432439,-1.8558929052904,9.640885864557
1662,0.32472336855986,-1.8552706009184,9.4817470954928
1663,0.25818868560036,-1.8133370716628,9.4197287062529
1664,0.21700063197781,-1.8524453866169,9.5874189114415
1665,0.18071507077883,-1.6333075701667,10.040174511155
1666,0.044810808250453,-1.6405391024091,10.113659955684
1667,-0.048844972760585,-1.6680121487714,9.8553862170657
1668,-0.071385766125873,-1.6406345859274,9.4991467103705
1669,-0.057116030366639,-1.6438220002167,9.6845867081619
1670,-0.02864902420463,-1.6407600982233,9.6574428305904
1671,-0.10453087812451,-1.7728646314168,9.7624130597134
1672,-0.040548201867893,-1.8063897707885,9.6773924625684
1673,-0.087929520341009,-1.8064239244066,9.7897810298879
1674,-0.14883753842241,-1.7513116812758,9.6603072074511
1675,-0.16991008387395,-1.7797792942754,9.5198746442793
1676,-0.13657347207264,-1.8499875582548,9.8512847905158
1677,-0.06382696572369,-1.9361839523307,9.9196762303144
1678,0.10509515961477,-2.0081695244669,10.022475840263
1679,0.091108944330651,-2.1362685080499,9.9576303158818
1680,0.13292164673601,-2.1663358771998,9.9242279302581
1681,0.35034060620628,-2.1911089614355,9.6163566419109
1682,0.3810944524976,-2.0658620938944,9.7573109787072
1683,0.39279564714349,-1.6096908812533,9.6750889357235
1684,0.45956015534555,-1.4870260693052,9.5824908708548
1685,0.55648441580965,-1.5464236393441,9.300125202051
1686,0.64461434304404,-0.86953227694625,9.8969532511067
1687,0.65636091068427,-1.7430421989922,9.5056159553129
1688,0.64423111070654,-1.6801461992041,9.7546089611618
1689,0.52126703871117,-1.5734184745137,9.3905319419456
1690,0.6822289216925,-1.8258506446312,9.7038950215859
1691,0.7827392981052,-1.2311708576562,10.426091614257
1692,0.9205917512619,-0.90353094772035,10.27967346868
1693,0.82276482375317,-0.7748677685501,9.6166205599134
1694,0.62944471358901,-0.77391458139351,9.0452825830197
1695,0.73923125584963,-0.81611455556966,9.6297272348842
1696,0.78218231967908,-0.66506483480922,10.103044703417
1697,0.78702065080806,-0.73227891123813,9.8608805963849
1698,0.70488937003455,-0.60993556569939,9.6697900386345
1699,0.53641967245832,-0.57627596520572,9.5824324266014
1700,0.34965342660376,-0.34880210206606,9.5378145820431
1701,0.30113577720333,-0.32785376516958,9.6629779357033
1702,0.17710292343175,-0.37214372016644,9.7074766886058
1703,-0.039611177685316,0.0103728282683,9.3097463824393
1704,0.23133335182569,-0.2959518862312,10.290180128477
1705,0.22041554306083,-0.29445754376453,10.277380284262
1706,0.16171610410678,-0.19674852608205,9.9034270271579
1707,0.06646238155623,-0.38884240956192,9.586532442196
1708,0.077614203706755,-0.26880209143904,9.8329907349166
1709,0.10414617901305,-0.2852101640839,9.9758903917375
1710,0.095849264937061,-0.31106588880679,10.105345864511
1711,0.048558322007385,-0.23371160230204,9.9380421856748
1712,0.040018656865417,-0.19818822148972,9.7043331520019
1713,-0.075530996922661,0.046308259439081,9.7954637949923
1714,-0.12939392003909,0.051802192773494,9.4992903443489
1715,-0.20895075247644,0.36115210118631,9.473910254353
1716,-0.085907758669846,0.41972844266873,9.8166188013328
1717,-0.040863377387083,0.37603942984053,9.9274728200982
1718,0.093917148514803,0.64814674783615,10.26269325742
1719,-0.13757657808267,0.76312460060434,9.7833841860992
1720,-0.13677469380864,0.8974683864525,9.5503581358265
1721,-0.093848590185119,0.92754592368997,9.6678974874377
1722,-0.16234475509792,0.97580880676409,9.7960738757112
1723,-0.21484521620624,0.97848262231373,9.8529440602119
1724,-0.24841750213822,0.63350587820523,9.8781600226625
1725,-0.38547209275804,0.83818165571318,9.8768900264904
1726,-0.47594538369471,0.69228039559664,10.08115215844
1727,-0.87766568927345,0.45102596255555,10.082299248918
1728,-1.0705570232746,0.46258838672368,10.07462912286
1729,-1.2704282835217,0.3596320592585,9.7427164371042
1730,-1.2798487245615,0.39427048553238,9.7832515495091
1731,-1.4826242480074,0.50298984127772,9.7259958213694
1732,-1.6570736590304,0.62106826210129,9.643326850328
1733,-1.6492897249685,0.14561727394815,9.5772351926968
1734,-1.1159396219158,0.76385904026694,10.022523320102
1735,-0.85310816485881,0.27026365555026,10.589840311032
1736,-1.1336481302519,0.31569103936411,9.6877381409976
1737,-1.3333455340378,0.3177608603461,9.4378238104243
1738,-1.4336435848095,0.3061215435688,9.6718066810827
1739,-1.4128327111608,0.17915637854397,10.081053485364
1740,-1.4939689866045,0.16413313586981,10.271074712637
1741,-1.6911352843668,0.22512005628702,9.7929810584429
1742,-1.8738927636788,0.033732762251555,9.6996722693882
1743,-1.8688802608044,0.14132907639513,9.639367097353
1744,-1.5962719911005,0.13629660321278,9.632093044954
1745,-1.0812218353281,0.0090562043288712,9.8711225718683
1746,-0.99163072192216,0.020168209039435,10.105843523838
1747,-1.2207331004023,0.096059051888752,10.058656480978
1748,-1.3586692649374,0.069971099646652,10.099496288649
1749,-1.5733408215707,-0.17814248888176,9.894666896106
1750,-1.7088340314054,-0.16904583265042,9.9374382504801
1751,-1.7568811975466,-0.10820103219221,10.011576673635
1752,-1.8661212143652,-0.32493679253091,10.064908279396
1753,-1.9407159525288,-0.55070184658407,10.265342566065
1754,-2.1247918847719,-0.25021628548483,10.022843733605
1755,-2.3858496662907,0.15112058032284,9.7799966663146
1756,-2.4983371443194,-0.047652494843178,9.7631354641669
1757,-2.5864617378821,-0.43448957797557,9.4885279161945
1758,-2.4893534427426,-0.38836443258037,10.106707184797
1759,-2.5395384024823,-0.032163191230607,10.687236959872
1760,-2.5471957951088,-0.046066139877307,10.421356836607
1761,-2.4425814146765,-0.19920589457959,9.9065209226971
1762,-2.3528589355509,-0.1602259772856,9.7449307083223
1763,-2.3195127661191,-0.36123534163108,9.6833558194796
1764,-2.4315360976502,-0.2564763623804,9.6110039907211
1765,-2.3773582760228,-0.27088466372704,9.4618829328115
1766,-2.2973302927999,-0.09722062594722,9.7483394844175
1767,-2.3118838743719,0.040525365610691,10.012737265304
1768,-2.3668934471449,-0.073103187233648,10.126746871111
1769,-2.3665959829124,-0.069820582179713,9.9666218850852
1770,-2.1742277360881,-0.14927889987704,9.7508860408525
1771,-1.1193286057172,0.0029647800575513,9.6787926399356
1772,-0.57512823085176,0.062863427097457,9.8686246403883
1773,-0.39907943143501,0.08088700664388,9.805282302248
1774,-0.38074197130578,0.25189182677683,9.6957400016228
1775,-0.41364235771998,0.26441672560458,9.5412002515457
1776,-0.38263880813499,0.32917853852116,9.5401091787956
1777,-0.29027425712953,0.41808684862891,9.6717597415809
1778,-0.047845731338608,0.53007094254317,9.8449000588378
1779,0.16774396562175,0.58161784158713,9.8171952704883
1780,0.71479958814867,0.59386457391464,9.5664274221183
1781,0.98647357183778,0.71784746683511,9.60836100374
1782,1.2476909404349,0.97230294097786,9.6791936051426
1783,1.4838299094888,1.1146483509924,9.8602502114172
1784,1.6324163287749,1.2395737087069,9.8590607789178
1785,1.7011532884665,1.4523930665972,9.745882654525
1786,1.720201500832,1.4434027124911,9.696451861472
1787,1.7613631295619,1.6704790419696,9.5318930826589
1788,1.7905881333583,2.1517182567685,9.5763050843379
1789,1.7088739162961,2.4682068125832,9.7226418506466
1790,1.7065084872841,2.253916870452,9.7372229483643
1791,1.7191024178073,2.351400915819,9.5609955662402
1792,1.7365131571363,2.6661286476462,9.8633610348698
1793,1.7485237196988,2.8516847567115,9.5846302259766
1794,1.6925169647496,2.9433745219835,9.6572199425821
1795,1.701962460547,3.2803960535565,9.1896860230924
1796,1.7696060852992,3.3502933982076,9.1566237520335
1797,1.9387807397453,2.9824626926318,9.4601084280045
1798,1.9698605394265,2.9432758081971,9.8186403295093
1799,1.9522622380695,2.8222777285042,9.8266644248562
1800,1.9537252272366,2.8496832613532,9.7283798049592
1801,1.7902716379615,2.8282629775662,8.986031485676
1802,1.6586979248699,2.3870795207701,8.9564326310564
1803,1.5384991359475,2.1092080939311,9.6651031052959
1804,1.545240129043,1.9055251473779,9.6765819917355
1805,1.539208512272,1.7145660393983,9.7452692775149
1806,1.5385949755981,1.6256536837003,9.8951118544206
1807,1.5146718961378,1.7935403716852,10.041911269888
1808,1.4660061892957,1.489991641814,9.3338108925934
1809,1.602966769236,1.522820864224,9.6196976338416
1810,1.6268226792628,1.6730568988556,9.9787474620693
1811,1.5707101183026,1.7608064869573,10.087659131546
1812,1.4974105731279,1.6927828413429,9.46481775571
1813,1.4731331653159,1.2626451223721,9.3475897079617
1814,1.6409216814742,0.79499173701306,9.7896084354264
1815,1.7175371961493,0.39329980545468,10.091348758138
1816,1.5416594923705,0.31907020492291,9.7644594307744
1817,1.3876333600305,0.43677993086346,9.2461409640242
1818,1.3884668594296,0.2109015423894,9.0493132749694
1819,1.5786779689031,0.11400133708093,9.931143582009
1820,1.705821413616,0.085529502572492,10.636662035514
1821,1.6410380674238,-0.035357241282774,10.584083300307
1822,1.5007066840005,0.16144522814793,9.584776910378
1823,1.4059490105425,0.032137871533774,9.2870941520325
1824,1.4472024554158,-0.097209352375254,9.1392244363601
1825,1.3470364444611,-0.039130846436549,9.2783176755502
1826,1.2304654341708,0.25380369387463,9.4155551598581
1827,1.172413756581,0.079745986417126,9.9022282071474
1828,1.3288734061548,0.18266528679291,10.383124242421
1829,1.1700287148154,-0.010333418326744,10.248896293788
1830,0.80691212476647,0.03260391515077,8.9063675414244
1831,0.96623985010151,-0.024850140465193,9.0373891469719
1832,1.1532193322364,-0.17199256770204,9.6910339932833
1833,1.0477240530759,0.089611819360199,9.9394433264459
1834,0.84588247863894,0.111182074968,9.299080819688
1835,0.99854184774911,-0.082092246656495,9.9868073387157
1836,1.1132851209771,-0.1755639695599,10.655850468305
1837,1.015240451805,-0.046384875493385,9.9296805215408
1838,0.74954364005395,-0.03774030753004,9.4161551866377
1839,0.63391151388754,0.32298588922039,9.1424838713174
1840,0.80475313080977,0.24953830783784,9.7676362076807
1841,0.87380028415574,0.47544117897869,10.358416487283
1842,0.96088430979316,-0.024130999868511,10.237956156592
1843,0.73389917736029,0.18954494292013,9.2538216011979
1844,0.59687763126435,-0.28835413204261,9.1576008247408
1845,0.59436409202697,-0.41246901498568,9.6444965706198
1846,0.86970016994158,-0.22742283682662,10.095518959366
1847,0.5296189077507,0.34596412332267,9.3134426833619
1848,0.79610994572585,0.77158804677396,9.6031040034827
1849,0.55261201349936,-0.50973246030834,9.3110264151594
1850,0.38796387744726,0.15363592179706,9.2547052347752
1851,0.48755851349418,-0.069786865774995,9.6243290681446
1852,0.74897861544013,-0.54885734416536,10.250500344455
1853,0.5365721820059,-0.079070923640879,9.5649257893158
1854,0.54243553571089,0.48635238881269,9.1883150856462
1855,0.61799716420113,0.029405098919916,9.8635774405678
1856,0.56229613006345,-0.16448482740197,9.4006588808479
1857,0.585801972995,0.060324156510744,9.2686936168927
1858,0.55225001704356,0.19995567726848,9.3574533723531
1859,0.54694417619563,-0.18275186965896,9.2188986020532
1860,0.59759110922545,0.25197409733697,9.6423973387008
1861,0.67541030553524,-0.17364351397044,9.4862496399489
1862,0.6677250161247,-0.35929151925803,9.9068646151265
1863,0.5206819552828,-0.26280833750191,9.557801014779
1864,0.54242086323823,-0.33920803268421,9.8356760915293
1865,0.61539629764607,-0.10127268628313,10.216659014101
1866,0.27506202503762,0.037171870215617,9.8130723893819
1867,-0.17219274387245,0.044276691332663,9.069308956819
1868,-0.25263238733429,-0.077106129979748,9.8253799638656
1869,-0.37715461767226,0.11085266974006,9.9128582287042
1870,-0.52345704267468,0.18096341415539,9.9093014809181
1871,-0.62968458643757,0.04113644887362,9.9277822477533
1872,-0.66498734626196,0.045792675692238,10.062107534485
1873,-0.83333721988909,-0.22642720804163,10.001626289488
1874,-0.78139718118633,0.010780365251195,9.8153978637572
1875,-0.43704378443954,0.076202388693958,9.8337770563784
1876,-0.0059069147455054,0.22234666805906,9.7119841578749
1877,0.046615558737933,0.15555252163194,9.674766283171
1878,0.05112631723751,-0.13399747571829,9.5309135745096
1879,0.12609537638257,-0.10047355437543,10.438541611823
1880,0.23766062628965,0.03972742154286,10.738968309758
1881,0.24508103623815,0.069917747600634,10.255989901262
1882,0.17130685279228,0.06826322799141,9.4952928584582
1883,-0.26000244886204,0.57924841142641,8.1969835036755
1884,-0.60801889524932,0.14671736797628,8.6540748914265
1885,-0.47205493328826,-0.088757748656991,10.026295188117
1886,-0.22121592992155,-0.34065004444622,10.876453913197
1887,-0.33106728592733,-0.12901538788854,10.472327265292
1888,-0.42867840987058,0.33856613229115,9.6063383328804
1889,0.0061988108160896,-0.18798110988435,9.961970695662
1890,0.13491567575722,0.17642384438513,9.4913648688447
1891,0.21948991508464,0.10497343102913,9.6155354115303
1892,0.15078282859012,0.21590311881324,9.9022209684857
1893,0.051202485129091,0.30628534137597,9.668846067479
1894,0.11480783380182,0.28538486451949,9.8811398877144
1895,0.20886096289367,0.38920653316861,10.006572197204
1896,0.22043894200108,0.35561227933419,9.7525507751362
1897,0.23982255662599,0.51859645815061,9.1622487843209
1898,0.28441560941204,0.57393029566156,9.1843554980234
1899,0.52945195658992,0.58452898690752,9.8714772244579
1900,0.5869200820733,0.83722695270563,10.344868354339
1901,0.37287853367622,1.2455239193576,10.18730107222
1902,0.30658312251552,0.9455777509114,9.7138702754979
1903,0.28187531126355,0.9616663212823,9.8594030746192
1904,0.32322398504914,1.2323604619158,9.6937573962237
1905,0.34958954300597,1.2305447513249,9.6898784717303
1906,0.19636404316103,1.3751483280421,9.531307285219
1907,0.15430940977982,1.1467252084518,9.5169049976209
1908,0.2853864235206,1.5682478633435,9.9695916245479
1909,0.43595939401974,1.6159308395078,10.156803364582
1910,0.22264423372808,1.6780331615384,9.5334903728719
1911,-0.065048270840493,1.5651752025934,9.1916117247868
1912,-0.10392125845632,1.5597191368661,9.2888208644817
1913,-0.089935493608041,1.5970231362409,9.8726000593095
1914,0.045166167566103,1.4665413038388,9.9024387873048
1915,0.10629652513622,1.2970411200937,10.053330041012
1916,0.27880591156613,1.2056067109354,9.7012159548519
1917,0.40389628603614,0.88671424284996,9.8062862714292
1918,0.17678644907117,0.66389798361264,9.6910889844138
1919,0.15188379784144,0.41611765370464,10.006060684853
1920,0.10833346069986,0.62191124474653,10.031133266395
1921,0.17978122841726,0.70448595761911,10.334543409471
1922,-0.19060942044807,0.9953857086029,9.6706789200313
1923,-0.30902239965379,0.8073672262586,9.4358760452805
1924,0.014261236337218,0.90177883555349,9.9020157693561
1925,0.44033680961771,0.79167270689051,10.566405903341
1926,0.33895161731359,1.1683131899261,9.9577059902065
1927,0.087100968796513,1.2695489440537,9.3095420428013
1928,0.05459540592059,1.3740604697873,9.5491113032365
1929,-0.19802193455165,1.4216157594232,9.2725790823005
1930,-0.3232664388695,1.3023863377394,9.5595379704172
1931,-0.23958243162404,1.2680011385146,10.035184142426
1932,-0.13026094747126,1.2351672243763,10.606763670637
1933,-0.30750627325304,1.1736541845527,10.134046755466
1934,-0.46203235093056,1.313202823376,9.3881979788098
1935,-0.3020504917706,1.4178951467081,9.8712177075804
1936,-0.38994809907796,1.4604222721377,9.722319619353
1937,-0.49723432984822,1.2723351981724,9.5019799564169
1938,-0.42755426719721,1.4201861046954,9.5851451013901
1939,-0.26300164976275,1.1363095742026,10.39305392292
1940,-0.63456031925053,1.4268605668159,9.708549450518
1941,-0.54779164707243,1.4227583428229,9.9046560649005
1942,-0.71472592978317,0.92846684804823,10.279093029456
1943,-0.79122528017546,1.4667691357151,9.5840466790424
1944,-0.83563847687239,1.1316272772799,9.9945906079538
1945,-0.6987781000125,0.72766352510506,9.8388227561364
1946,-0.58552548986253,0.87210677345377,9.4887002722791
1947,-0.53521359432383,0.89298676095389,9.7183725674441
1948,-0.42391264627509,0.65751155039622,10.147928627195
1949,-0.51261356467937,0.60054125275052,10.054701951655
1950,-0.68234643407636,0.60310879278049,9.8107547426121
1951,-0.79336565518601,0.52247676218258,9.1996643502174
1952,-0.89326369065477,0.39908535814392,9.5593411113327
1953,-0.88908383585428,0.43360062501134,10.080718119956
1954,-0.90418846221869,0.54859136967764,10.09110784118
1955,-1.0058035133109,0.87566422125513,9.6353740343564
1956,-0.95895341979337,0.56641431778179,10.094695169397
1957,-1.0318932629246,0.5683245772009,9.9479778426285
1958,-0.99530581510056,0.6902947447157,10.099250440441
1959,-1.2069579667197,0.50561403497537,9.6578448405309
1960,-1.5315659033255,0.54756038793724,9.2554872016627
1961,-1.432715963347,0.6717523071543,9.5021771347838
1962,-1.3070795682819,0.38779673894307,9.923694428071
1963,-1.1782231590914,0.48263753448788,10.354284145953
1964,-1.1723897666601,0.31589971682812,10.352084386884
1965,-1.2542329640702,0.33067494077295,10.354960565943
1966,-1.4136601191497,0.35998685288568,9.6596531333149
1967,-1.4738822142215,0.11271984737533,9.7461198009442
1968,-1.6360854663115,0.21377882449443,9.7118627594148
1969,-1.7675352376073,0.10893097245237,9.5799913390331
1970,-1.6596250789563,0.23890581561849,10.068101208888
1971,-1.5940719607247,0.17815399193284,10.380853413717
1972,-1.7092574393233,0.031089077728543,10.368270426067
1973,-1.927941043806,-0.042147429585509,9.9672421057921
1974,-2.0215357887314,-0.048709567886454,9.5594583995914
1975,-1.920588861539,-0.13546493761283,9.8542269794989
1976,-1.7596259870438,-0.011393938948358,10.30434502967
1977,-1.6140584024427,-0.095975109969454,10.410803759282
1978,-1.8859465859676,-0.26632270133151,10.252067439944
1979,-2.0917530493541,-0.41283478275469,9.8459330338149
1980,-2.0943948003277,0.0074952692100341,9.1456811936805
1981,-1.8118528618105,-0.084524074719623,10.101684760815
1982,-1.8118159065424,-0.37142670957569,10.826373003819
1983,-1.9901641265528,-0.04680886072588,10.783129974014
1984,-2.3507297296036,0.34569953603572,9.3901841253972
1985,-2.1376540119281,0.25623321542334,9.9804250218048
1986,-1.6028403312753,0.41314258866572,9.8734551808683
1987,-1.4478191680305,0.61225907712824,9.9754213322759
1988,-1.3264022676562,0.856917293726,10.334197929938
1989,-1.2905444981907,0.97026837931615,10.347011638368
1990,-1.3265596694454,1.2390843569252,9.8831287153034
1991,-1.3812798539797,1.6898945779786,9.8500127998143
1992,-1.42532829226,1.6928202200856,9.9876724277407
1993,-1.4940112527877,1.3152305804428,9.874174505522
1994,-1.4564962364711,1.5449408219286,9.9717990037264
1995,-0.99026512339635,1.8889095490337,9.5205438560495
1996,0.069308235776693,2.0091982320302,9.8621269443175
1997,0.43042694638629,2.0396850061659,10.387310005805
1998,0.58254380742035,2.1966057730924,10.361866837897
1999,0.4375112364649,2.6634771652268,9.7911583141215
2000,0.3075565283266,3.0968173796471,9.7675436149362
2001,0.32775254628848,3.3409953906816,9.7599183063665
2002,0.31201584729187,3.0768291871477,9.6064585423793
2003,0.41952591715894,3.1091543710336,9.9348234851776
2004,0.52587820485017,3.6221680216057,9.9783965718295
2005,0.39489523553164,3.5978060530905,9.9793341555771
2006,0.40213637161486,3.4564076177224,9.8904050768258
2007,0.55167783162186,3.0367787837693,10.266894159104
2008,0.72037209583454,3.5809007812156,9.4012745367498
2009,0.84164503080251,3.7825445283144,10.164057135102
2010,0.97421998656015,3.3448929636895,10.272056873137
2011,0.78897068406077,3.2951390659638,10.716663831443
2012,0.78970391704098,3.5459586331958,10.286973162246
2013,0.7563826060258,3.2111032459893,9.9449039752424
2014,0.73146401442124,2.9207582643601,9.9092000271588
2015,0.86914375253278,2.7967258983341,10.367429135711
2016,0.97086114928165,2.6234178409997,10.771740503121
2017,1.0358266006871,2.264334750087,10.49194250477
2018,0.98043392006528,2.2238900546753,10.206368780554
2019,1.0931458340094,2.3726268355244,9.9238366818659
2020,1.344171550828,2.2988168371051,9.7684985828032
2021,1.5338236366314,2.4237390162041,10.010101564704
2022,1.64553876563,2.422534623763,10.812018825704
2023,1.6997166974663,2.0803038545679,10.762781971568
2024,1.565350215491,1.5088017751346,10.066450891387
2025,1.4733678211302,1.2754213192555,9.3237563909746
2026,1.1341201164348,1.8772030237233,9.3645304168071
2027,1.2286375715732,1.5261056669923,9.7887206165667
2028,1.3034473623034,0.83266562711924,10.347837920872
2029,1.3936173962181,0.97339473771933,10.87231466176
2030,1.2845266696156,1.2553883155049,12.060725305998
2031,1.2439346987584,0.79619424885825,10.66705293596
2032,1.0843068162167,0.83141048959119,8.8702192842622
2033,1.1230791593596,0.6145214649364,8.9481507009453
2034,1.1129318691942,0.33072729039962,9.7293452345864
2035,1.0112207893765,0.095537957599968,10.007612779211
2036,0.98169516567283,0.11051047104088,9.9536223478028
2037,1.073228029231,0.036078142232488,10.222119752157
2038,1.0775997143271,0.1477492830732,10.272841104247
2039,0.97775131458114,0.1867315863213,9.9388092765965
2040,0.85459757624944,-0.088947944113706,9.611972142755
2041,0.9184680952939,-0.081026454014689,9.5619624784178
2042,0.95910884570314,-0.1123832300238,9.7706500273404
2043,0.87045599593648,-0.012987033812638,9.9526171587957
2044,0.85282729220127,-0.0038013834875709,9.761295769517
2045,0.84973949787975,0.1008752217297,9.5767146279408
2046,0.92356647497287,-0.080409688608034,9.7379719774877
2047,0.86904383646504,-0.013281877463428,9.8724268852047
2048,0.85274801109568,0.14929866303108,10.082900333348
2049,0.90479951145741,-0.41383584133917,9.8201129099198
2050,0.91661815042419,0.157800564919,9.9738466120558
2051,0.88292994457066,0.091707285762623,10.182712786835
2052,0.67556897124933,-0.24765499279126,9.671800199583
2053,0.81575534843528,0.016629032448168,9.7953784479757
2054,0.95086549277347,0.041850710048088,9.9680917396382
2055,0.82107123670669,0.11842210438176,10.088239588333
2056,0.64582869333197,-0.23222094731103,10.062663290442
2057,0.70762352288171,-0.0072565441086027,9.9817141822043
2058,0.66127223637093,-0.020767442407998,10.064474982173
2059,0.42640273621419,-0.24487247759422,9.3263280103134
2060,0.49639287408387,-0.13388865910735,9.3593840229162
2061,0.39102401050105,0.15999320743163,9.4183822553045
2062,0.49648365503506,0.12483696062169,9.996471227924
2063,0.37036886604983,0.17114994354023,9.9484493415882
2064,0.33053899032918,-0.002364161152692,9.8667655715562
2065,0.26960267182541,-0.035340518669568,9.3361874719894
2066,0.29426680720834,-0.18070896487492,9.4987416750398
2067,0.30033112992867,0.094268636173114,9.8311139956449
2068,0.37036197052609,0.086833036006228,10.173887588663
2069,0.35786814919199,0.0033475200047504,10.059149333758
2070,0.29066034602168,-0.091176917925986,9.6771963203535
2071,0.29282759536562,0.14932153435998,9.5150582979484
2072,0.34344519793937,-0.16986944572975,9.4275617915491
2073,0.26845788109369,-0.12493596390289,9.7644745918583
2074,0.25893270016755,-0.16981817972705,9.5417451048542
2075,0.32753672619091,-0.36221672717366,9.9323457998326
2076,0.41429906024925,-0.18917831468807,9.9611277493408
2077,0.36217103927898,-0.29122325025766,10.122843746646
2078,0.27471858820517,-0.43429385674107,9.2468067724056
2079,0.285242819377,-0.41256141120533,9.3265216058677
2080,0.34390627024743,-0.57482148240419,9.7279485115514
2081,0.38781740953427,-0.60196029361728,9.9113087419528
2082,0.43054397907114,-0.4891155714431,9.8736690641268
2083,0.42086001979322,-0.77403911316724,9.7500507197576
2084,0.39170833955925,-0.37105952756073,9.5142732538322
2085,0.41979696335369,-0.83071645901773,9.3647936424417
2086,0.45378176086266,-0.58105372937795,9.7005079998135
2087,0.47596080849823,-0.52097225814988,9.7640289677662
2088,0.444371386616,-0.6111210538569,9.7965460898535
2089,0.43196028174024,-0.17132286559617,9.6929165879347
2090,0.52737216114037,-0.069157380989698,10.108551733738
2091,0.49524748172478,-0.12338401818239,10.069674369778
2092,0.42267924101689,-0.12416683697777,9.5574136634253
2093,0.37025139250205,-0.25874271222437,9.4951309373826
2094,0.41460731670915,0.44495507049866,9.6427623675299
2095,0.43695353285559,0.61374751649315,9.7083323965139
2096,0.25505839159057,0.95562315060125,9.9329848458021
2097,0.16471920209092,0.72622745972168,10.035594820198
2098,0.19980759523711,0.75940038735274,9.5064114538975
2099,0.1567175620735,0.85290439568707,9.3091306776785
2100,0.26051628518834,0.82558444437721,9.5702127372707
2101,0.24205269419368,0.86543399241248,9.6219623421974
2102,0.142834103784,1.277785232851,8.6223842492699
2103,0.0063270964034414,1.075679742092,9.7494716600319
2104,0.41058480137714,1.3390538838839,10.669372430802
2105,0.25500929269894,-0.060451237125196,9.3541893111403
2106,0.090781268657863,0.93250475615911,9.6327272909476
2107,0.2260701272206,0.79354650183924,9.5912838737261
2108,0.10762218117684,0.78825827241926,9.6255815215375
2109,0.15555000433218,0.74668882351231,9.8705994944838
2110,0.22196747972912,0.40766723703299,9.7068820805642
2111,0.15957333116233,0.47587591761847,9.8124710539006
2112,0.20618874471877,0.25498717258864,10.026020192193
2113,0.14200215682849,0.17224080346185,9.7293230596175
2114,0.048426888954964,0.53686190188774,9.57260239661
2115,0.12571691210159,0.22909266481136,10.157178726299
2116,0.14584669686725,0.29497553640944,10.340762921794
2117,0.20989766425809,0.22356074305288,10.238073751477
2118,0.076263090613298,0.27832387393261,9.8058364620703
2119,-0.018104276686323,0.24978676481554,9.2821454936397
2120,0.073982142636202,0.35312441003547,9.6660360881156
2121,0.13002152091747,0.62847309231954,10.292439155082
2122,0.17827325321863,0.38624845384233,9.9389552562546
2123,0.090273300442186,0.12348479754327,9.8760972780664
2124,0.10128173547188,-0.00087797605790491,9.7137550104204
2125,0.10670411885411,-0.04416899198911,9.7295000055864
2126,0.071165281156162,0.06961627551803,9.7427621717133
2127,0.083683032474294,0.15007082959496,9.7227828442412
2128,0.094667366865725,0.24415331138991,9.8572022481339
2129,0.13550861908985,0.30900701188355,9.6680865890019
2130,0.15565587632774,0.36658144997884,9.6949525515988
2131,0.28766745103921,0.39128809458127,9.805682569748
2132,0.37921556083987,0.26240824484678,9.8807256887702
2133,0.40253741734286,0.39663400704904,10.106004766744
2134,0.39028622036775,0.22702062537871,10.063681872807
2135,0.24309170839319,0.030907511171203,9.9743759848876
2136,0.019072126489758,0.15565916993334,9.6838223848194
2137,-0.5013097906506,0.56368499566043,8.8008384219337
2138,-0.3742967497857,0.10330031993115,9.5637968112907
2139,-0.26876114131979,0.29372316188969,11.333031259999
2140,-0.27373829069092,0.26456375324287,10.514847306654
2141,-0.45118315605155,0.25674251263602,8.9669552775343
2142,-0.45572602141288,0.26348431908309,9.1842966768835
2143,-0.40052506865878,0.40103199292919,9.6519211265229
2144,-0.36665893931038,0.28530274404346,10.01911655282
2145,-0.46624062567237,0.40241111672829,9.4552046779897
2146,-0.58365720421373,-0.12455637464025,10.050216630734
2147,-0.35205743114091,0.10526230727979,9.7933836400732
2148,-0.36754891101792,-0.18367014088116,9.9147384288389
2149,-0.93565013658096,0.27441631346198,8.9584116378794
2150,-0.38842360522413,0.30558659657107,10.107766034248
2151,-0.47606864243858,-0.42658324361052,10.344929936667
2152,-0.47946893597761,-0.037888079224248,10.161152714603
2153,-0.46114691817894,-0.022372188726207,9.9848891873404
2154,-0.41239557816906,-0.06748681680081,9.6899406044557
2155,-0.40705758800705,0.20163063278041,9.6791513480068
2156,-0.41696257244016,-0.041046864352867,9.6205246033631
2157,-0.4432203915464,0.028282280310034,9.5271019602732
2158,-0.41315554734766,-0.0048292301919905,9.5215680743306
2159,-0.27197896037325,0.17811477820527,10.109812956821
2160,-0.22160892821432,0.13296812191817,9.8092258976459
2161,-0.22653016480886,-0.075516974637048,9.473364119226
2162,-0.18978353130985,-0.10026772960154,9.5407413270757
2163,-0.18677512616417,-0.013230900229069,9.5738083798962
2164,-0.23142169955545,0.0090975564657932,9.6257225967983
2165,-0.20166198332143,0.025308341280229,9.6077124769285
2166,-0.13826045042515,-0.058920519033017,10.024787647805
2167,-0.20020600627889,-0.22209650463919,9.8441592985345
2168,-0.11434616887897,-0.30708128486006,9.8420942542659
2169,-0.06917051788199,-0.1809039136165,9.8243592792259
2170,0.018736253449182,-0.068381648600505,9.8409922635126
2171,0.11768513017648,0.19597076147902,9.775813765894
2172,0.24307657184266,0.23936918853926,9.8186614052283
2173,0.10922964614119,-0.011932869096543,9.8561511144695
2174,0.12786763135822,-0.20611817859461,9.3641565364508
2175,0.22819926873104,-0.12227007625107,10.045927183536
2176,0.16188474996974,-0.23671785653824,10.634388941285
2177,0.12436335721822,0.13203162289892,9.4487066765785
2178,0.17804507247341,0.27378846528441,10.028776002796
2179,0.22795800960662,0.055721559528396,10.27240064504
2180,0.13354902416558,-0.15127119942621,9.2801871489672
2181,0.062581117767403,-0.14436193392665,9.5278155995497
