,gyroX,gyroY,gyroZ
0,0.020865201897995,0.0055081044192091,0.013500556753479
1,0.016674885982603,0.024960314233144,0.012150790418969
2,0.004599748022213,0.0086829994885172,0.013797031732061
3,-0.0067658331350413,-0.0023484765782276,0.013512633914581
4,-0.0021740739344633,0.0031635733620916,0.013464113719488
5,0.0023361336052472,0.0062727706645949,0.012331097862738
6,0.0013720950235122,0.0031117006061513,0.014896106783166
7,0.015215337291535,-0.0055399776990827,0.015855158335492
8,0.013113081921651,0.001779940944783,0.013155208497641
9,0.00034659193396909,0.0034888939746412,0.012659686732888
10,-0.001304217177701,-0.0024603692107854,0.011450012078486
11,-0.015654628074803,0.0039775308128356,0.0060893593701583
12,-0.012471535458431,0.0044359916581927,0.0045457172080685
13,-0.008436014285468,0.003637661190622,0.0057585546246922
14,-0.0025228082988334,-0.0015060353893905,0.0047528133489564
15,-0.0054530618951195,0.00043719024979957,0.0052247130890423
16,-0.0067572801177056,0.0067982524089576,0.00021742258885891
17,-0.0062767147172497,0.0096763424931263,-0.0014956928539858
18,-0.0026773682618255,-0.0083946626274286,-0.0002576272047587
19,-0.0050900501206004,-0.023284179980919,-0.00051417664361745
20,0.013663596706831,-0.0048485430690641,-0.0029648674112742
21,0.0085419999761792,0.022714510684725,-0.0027126465277506
22,0.01712400269086,0.014740780130719,-0.0016464301799924
23,0.0062967532864755,-0.0056607248088805,-0.0023525932648496
24,-0.000839385622551,-0.012774537131516,-0.0031907477329459
25,-0.006040879392675,-0.012701674780788,-0.0046985736168959
26,-0.0074700595325219,-0.0060118269802557,-0.0084612407550922
27,-0.0036660422677196,0.0077076031821785,-0.01117978616297
28,-0.00455551553368,0.018450411904961,-0.014405877591247
29,0.0033408210870196,0.0085573276382408,-0.016158495690747
30,-0.0017955003125133,0.0034341305136743,-0.021240962914274
31,0.001303256546251,-0.0041809006930983,-0.030816909689296
32,0.0061662770759087,-0.020837652685236,-0.03388574572714
33,0.0029846166250667,-0.011128122323749,-0.035076518069236
34,-0.0025742061181348,0.0042923214326477,-0.038254384165587
35,-0.0048907170729163,-0.0014468174213572,-0.048793980632722
36,-0.011943327734119,-0.010325073242756,-0.060043641214996
37,-0.013931633823749,-0.0040716835874205,-0.069043126591356
38,-0.010237362629923,0.0079065850100193,-0.079602989984548
39,-0.02174330964985,0.00067801616464079,-0.098084331419042
40,-0.022924751467595,-0.0031309720881599,-0.12128390833719
41,-0.022875011890082,0.0010590586173498,-0.13869359748818
42,-0.023906654897863,0.0062114607269496,-0.15602556136028
43,-0.006854655395309,0.0096398200394364,-0.16953126981076
44,-0.00026535715645503,-0.0064603188488547,-0.18144550322261
45,0.0032092249598072,-0.01523285702848,-0.19465820960418
46,0.021941552636736,-0.012210914979441,-0.20202450097166
47,0.038136973466649,0.011377659296405,-0.21382287651553
48,0.051251213818856,0.010919812578876,-0.22481882747655
49,0.048333935817654,-0.0067532273635129,-0.2328476404852
50,0.062664628163946,-0.01909025994071,-0.24700590392104
51,0.040775665818546,-0.0060294608925787,-0.25961886127777
52,0.027774345678649,0.017188377024007,-0.27279381678251
53,0.032445657686423,0.019850310327048,-0.28150644721034
54,0.034442141266933,-0.0048858404341946,-0.28961629734159
55,0.01855335121046,-0.043984879670636,-0.29892665587118
56,0.033537077507449,-0.05421694203893,-0.30217781368842
57,0.040754692151697,-0.037561532558428,-0.30554005983742
58,0.0012359245087223,0.02110558484858,-0.318744950837
59,-0.030999124063858,0.045842035235652,-0.3371288948451
60,-0.022661255631931,0.034715636052449,-0.35365854595599
61,-0.022992187715112,-0.047627559891258,-0.36009426075516
62,-0.02162129924464,-0.071105856420654,-0.35682302120715
63,-0.00040433947521827,-0.029411027176335,-0.34790164342942
64,0.0126349474221,0.020173564174154,-0.34502092566644
65,0.0051811465776559,0.0087472896000435,-0.34642209623732
66,0.012923458726899,-0.028247571695487,-0.34663863228377
67,0.0082734222530677,-0.028389571383304,-0.3461711117269
68,-0.012309040895686,-0.012057182834077,-0.34661265800256
69,0.0023204215774031,-0.014262262097267,-0.34590622896732
70,-0.0043313847486723,-0.061468818494623,-0.34546696154952
71,-0.0037569063990768,-0.090143431542352,-0.352305770626
72,-0.0022448169101376,-0.08678066942374,-0.35268404956938
73,-0.013898108360601,-0.044982639749582,-0.35625169367442
74,-0.016311679184715,0.019004149288868,-0.35619179402016
75,-0.035643438318354,0.037798489395916,-0.35697048382194
76,-0.031184680765608,0.0099870056079856,-0.36288200141854
77,-0.056774995619011,-0.0031294898284472,-0.36722522096686
78,-0.04124695013739,-0.0070233636619274,-0.3689016916441
79,-0.023150095516487,0.011886743403266,-0.3664590503615
80,-0.0018415269112158,0.00093082174754708,-0.36451811163854
81,0.010258628277414,0.0024298224608931,-0.35741191721173
82,0.029991886923587,-0.00075575207660859,-0.34902189255964
83,0.071789441180979,0.0032458330663053,-0.33828355041926
84,0.041297680684379,-0.032348473905723,-0.32818425064415
85,0.027957526723646,-0.048271029278155,-0.31628720102427
86,0.066339333500393,-0.038387151773667,-0.28516916836612
87,0.035968089577915,-0.0037295325430855,-0.24980561808299
88,0.024910782518409,0.030219017150588,-0.2195244700832
89,0.0071112487100824,0.032486393720009,-0.18870694289543
90,0.023893820604408,-0.021804166289633,-0.16154466220604
91,0.029931723665843,-0.051635013710816,-0.14498768010906
92,0.039942971604979,-0.038131197226281,-0.11974816099085
93,0.062906778801698,-0.032033585024637,-0.088097147280822
94,0.040121056346238,-0.04041426019408,-0.06039581608084
95,0.024608471235441,-0.047357358939389,-0.039710615671865
96,0.019040794363568,-0.033298523779202,-0.028678000308433
97,0.006540145925173,-0.035562221938932,-0.027783724199573
98,0.012234794624501,-0.028330780871277,-0.024563635194838
99,0.010506195845519,-0.03564763756343,-0.020422206892716
100,0.022533969078865,-0.014913692069439,-0.020229749990279
101,0.0084869475498236,0.006689859377817,-0.019007203932379
102,-0.0096696291090395,0.0072481772923426,-0.022705872624679
103,-0.00066689682738133,-0.011323938713866,-0.020587660993396
104,-0.011271625820478,-0.015600730296775,-0.025786267759672
105,-0.012581070289025,-0.023078756613797,-0.02598518655561
106,-0.019493769195696,-0.03450488393571,-0.026117228093184
107,-0.029042974458738,-0.043029351079546,-0.024090796836588
108,-0.023033901819352,-0.029054918552089,-0.025514915467697
109,-0.022593191394548,0.011908273470318,-0.027005738832407
110,-0.024753861321915,0.038954408791962,-0.028461411740331
111,-0.0033819225728286,0.01596658281165,-0.023757225362215
112,-0.00047777501102649,-0.0052820443433041,-0.018648843851808
113,0.012121670103656,-0.023484675006511,-0.013435034716924
114,0.006191390321508,-0.025911926514267,-0.0078517322383458
115,-0.0068092980134846,-0.012385551545988,-0.0044730459590917
116,-0.03014760654686,0.0089277331044805,0.0010262824756169
117,-0.036598410738118,-0.0034224041553046,-0.0023034710170958
118,-0.036969128844901,-0.015480238207154,-0.0019366840096466
119,-0.042047126536794,-0.010161877041995,-0.0040316729422426
120,-0.031667218669293,0.0050993767819811,-0.0051808236289265
121,-0.0034984158944031,0.045401452165312,-0.0026605915451663
122,0.025007954941581,0.082945608526727,-0.0022565227192695
123,0.046998037020374,0.062215067176249,0.0025086277309981
124,0.078576259068305,-0.0064239710757996,0.0085639045469275
125,0.057059417445435,-0.044577624450346,0.011072046295552
126,0.040768858522349,-0.051102451824065,0.0090463133796734
127,0.0092052389531902,-0.039744104401752,0.007336864922653
128,-0.021968726042158,0.0029377669982107,0.00045480642701861
129,-0.024653037908723,0.02704010883054,0.0031572359536521
130,-0.024058802631838,0.024961300190115,0.002118750661711
131,-0.012786704396039,-0.0083702461642687,0.0017611368707858
132,0.0042269583149568,-0.039310318747063,0.0012750088351398
133,-0.0080438616290317,-0.030598069276903,0.0056779263768242
134,0.001151044827715,0.0093739157235277,0.0043533313138344
135,0.0057186151751178,0.07204926757741,0.006999641278416
136,-0.0029979189957029,0.0083016012736941,-0.00043078393076947
137,-0.017591360508838,-0.031865638458473,0.00024610904283425
138,-0.0051870278941162,-0.032269178623161,0.0012649912842762
139,-0.0095497281466904,0.005270759375383,-6.1754089338369e-05
140,-0.0076430489847853,0.026525635157668,0.0025479042977574
141,0.0058635673004202,0.010491606801944,0.0064621664545116
142,0.01336964692869,6.0844135591497e-05,0.011447959881075
143,0.024268331072447,0.0020685953301203,0.011362582641904
144,0.0012907102308495,0.0067756256875017,0.011344692823769
145,0.01319589342684,-0.0018860145745803,0.013824623143024
146,0.00023052888973669,0.024501208360779,0.011863569775765
147,-0.011955690410856,0.01473918426161,0.011202086351656
148,0.0080360712572668,0.0073361924441784,0.014322796820766
149,-0.015463180042197,-0.0023837054156384,0.016049630208492
150,0.0048289822763184,-0.026059177636576,0.016269197096299
151,-0.017457637060829,-0.0015669768701274,0.012099522287651
152,-0.037058444914281,0.012837352875442,0.0037010192506422
153,-0.02394728522261,-0.010054478850528,0.00045261042711688
154,-0.024906302856098,-0.0016749685094028,-0.0024713828699748
155,-0.028037113364963,0.021626577893314,-0.010327554339205
156,-0.020817198340897,0.011991853298193,-0.012819063946186
157,-0.015337729351433,0.0026595905933944,-0.012713667700324
158,-0.0026802832068623,0.0043020079797327,-0.016310284978411
159,-0.0016344844013403,0.01165596002116,-0.021244426017618
160,-0.028994442104801,0.042833341421367,-0.030730372980815
161,-0.016292167194467,0.0037110934217701,-0.039385126523262
162,-0.055897787720424,-0.040134428807777,-0.055650161885105
163,0.00998706501996,-0.032248286178717,-0.068196240313388
164,0.024183206419461,0.014093186197425,-0.085293169503265
165,0.002880380467048,0.033276321143906,-0.1051643525767
166,0.011328818901982,-0.0098297645424267,-0.12146494168034
167,0.016938444547352,-0.0060561921201099,-0.13436220398366
168,0.0061288076285817,0.015441588398217,-0.14231898500557
169,0.046114990141751,-0.0093089956176041,-0.14443277452532
170,0.015504373192705,-0.028604144002211,-0.14948195583065
171,0.0017974526568448,-0.039723684568996,-0.15299177279073
172,-0.029621312269569,0.0017339151685616,-0.16116158803793
173,-0.049553677629478,0.040021643139216,-0.16246229775231
174,-0.038466190641186,0.02276569862389,-0.15860647470394
175,-0.017453443967498,-0.016853400447555,-0.15468747846735
176,0.0037925411421421,-0.023056852821383,-0.14759548365036
177,0.016610159649741,-0.012194252885914,-0.14205204448477
178,0.023023943538111,0.00086162509470668,-0.1440751865145
179,0.00015515643664329,0.017444819566852,-0.14538445929357
180,-0.001489225595776,0.0052336656188375,-0.14937344466309
181,-0.0074552189813199,-0.017365886816597,-0.15536138851545
182,0.011387236524441,-0.024963121672993,-0.15407309622306
183,0.013320339404922,-0.011525950227487,-0.15531937265271
184,0.029564323050565,-0.023168925720477,-0.15267660063428
185,0.0064775081831765,-0.031692310167707,-0.15900264642468
186,0.012400060720599,-0.02735284191989,-0.1629854858739
187,-0.010714481233504,0.016574455839736,-0.16821505462748
188,-0.023472278766663,0.020318233364131,-0.17614919003103
189,-0.0016571046162309,-0.0062537003471084,-0.17829428682852
190,-0.0070425482553855,-0.0061040050691511,-0.17961500363704
191,-0.0037783854364926,-0.0015709562694983,-0.18011375799422
192,-0.0090955273851929,-0.0088526021310417,-0.18099430957002
193,-0.0026435132182921,-0.0065773391532351,-0.1810938076114
194,-0.0032947500744274,0.013387213262942,-0.18065074028131
195,0.0015776130522865,0.028985732086238,-0.18151827412895
196,0.010305349912674,0.020898657080584,-0.18020499230708
197,-0.0018290750934184,0.0056257680556007,-0.18188446076712
198,-0.0074084036352589,-0.02934580565373,-0.18531036065147
199,-0.012982125478007,-0.036531374479398,-0.19410378257546
200,-0.017777122830163,0.015228947004209,-0.20446610093495
201,-0.028756405673922,0.044368230178004,-0.21349959763184
202,-0.011319928402896,0.011874434253954,-0.22570718122366
203,-0.016557503686977,-0.003547031277917,-0.23914998537023
204,-0.03138371892748,0.0080842430500025,-0.24795074625575
205,-0.00084154163822388,0.0021199123577992,-0.24463551376592
206,0.018913600062779,-0.018119287931505,-0.24179407141198
207,0.04231346662209,0.0064913233707651,-0.23585359314135
208,0.038588966761268,0.019922958915988,-0.23238595164189
209,0.030253807190387,-0.022042655934996,-0.23661733703576
210,0.012671640215698,-0.035242225131147,-0.23760104001787
211,0.023537392509267,-0.0051665850939097,-0.23149548576196
212,0.015470538629462,0.029078205074154,-0.21770776320345
213,0.024551984978499,-0.014676396413113,-0.20419700362473
214,0.026621677802335,-0.025845876568906,-0.19105617842536
215,-0.0017078838394148,-3.8583156855045e-05,-0.18588595746048
216,-0.0091153840168275,0.0028864002300934,-0.17666449179295
217,-0.0078480669710374,0.012170763348386,-0.16265949758996
218,-0.0013589287415192,0.0038002939754063,-0.15208350667987
219,-0.007368058784595,0.011370495396771,-0.14764607054998
220,-0.022432853031988,0.041797816862852,-0.13955362623683
221,-0.015700209892447,0.045410664915729,-0.1308809219381
222,0.024234483198654,0.028848335055134,-0.11444464566588
223,0.039296119656977,-0.0074726175783338,-0.08674412922983
224,0.051249661022686,-0.016857956682034,-0.063720772226919
225,0.037333890887649,-0.01760762645413,-0.050820370244961
226,-0.013497832199818,0.0046712115592222,-0.05091711375077
227,-0.054297839410386,0.034124457050873,-0.053551870831242
228,-0.049221900742935,0.025057365655765,-0.053356503027468
229,-0.060875872165754,-0.013897126522512,-0.050146929010707
230,-0.031868287134679,-0.01742768221168,-0.039972808487716
231,-0.0017444201447056,-0.023168784189626,-0.024502765035533
232,-0.0026288978447087,-0.01646127261826,-0.010249678791496
233,0.021189714341989,-0.009363221600632,0.0029687897871286
234,0.020773711008006,-0.016291396752461,0.011772746901359
235,-0.00090390544099877,-0.01976298202152,0.014435345853717
236,0.0023831414546865,-0.00096667097224258,0.019007754625802
237,-0.0025179889373215,0.0014276103495173,0.026686360053089
238,-0.010738713592548,-0.0085818856645339,0.037275215293315
239,-0.010136222384294,0.018679828880658,0.046335403763754
240,-0.019153013544512,0.028161171987642,0.056402448221391
241,-0.019699063189539,0.018245806762467,0.067167708526487
242,0.0083995903269784,0.0082820347508753,0.076199450580376
243,-0.0014573341435971,-0.013341801611332,0.08634075678297
244,0.002418438260741,-0.00791847635386,0.09784395868884
245,0.012798400199543,-0.0010945569036945,0.10952309314333
246,0.0093116941595686,-0.0094359197920923,0.12165957811588
247,0.011575635133065,-0.016407078160192,0.1377640753967
248,0.0097306613781162,0.0055621594455392,0.14238715202076
249,-0.0021438374180414,0.015729966612014,0.14194424126931
250,0.0090808152168414,0.0018456115533622,0.14637684832607
251,0.016648625380645,0.0033407876867557,0.14771396277216
252,0.017286580562654,0.017761196956098,0.15320569379391
253,0.022822788089179,0.026846011236904,0.15667968137549
254,0.031780454090381,0.017460828516808,0.1609053179757
255,0.033027643257282,0.010859318200934,0.17224244255315
256,0.025871946855186,0.0080120684938852,0.1894703484658
257,0.02664299028837,0.0065087244679299,0.19430522200524
258,0.016253563598875,0.0026945505628181,0.19558608562127
259,0.014064679552606,-0.0022717727184738,0.19917162977063
260,0.014331138724359,0.0018837595644142,0.20635403270569
261,0.013703396796629,0.014232837370381,0.21866838993709
262,0.015109580867448,0.014206506234194,0.23282848294093
263,0.013649499404655,-0.011104509367498,0.24502228670733
264,0.0030477216809286,-0.018103096174095,0.24899788489157
265,-0.0065892752388104,-0.0072907116975739,0.24972840295741
266,-0.0086729958693191,0.003407195962495,0.26022785545383
267,-0.017667537299997,-0.0024713056241193,0.26463373286018
268,-0.02147413437174,-0.013203265379287,0.26412854204637
269,-0.027400942389879,-0.0083953622652741,0.26286823164945
270,-0.016891783539321,-0.0009521820905962,0.2640569710692
271,-0.0071599081861156,0.0073854943468561,0.27121560127565
272,-0.0054679021999454,-0.00071700903053926,0.28397644086199
273,0.012768453001702,-0.015708712599563,0.29438134262617
274,-0.0057296513557022,-0.0062312675925822,0.30378496941202
275,-0.014499677310695,0.0080051739925472,0.30437010291964
276,-0.017840956514749,0.018584027815558,0.30709819569682
277,-0.0043135278326591,-0.0040801359135564,0.31907172818338
278,-0.0032424348306541,-0.021673915404607,0.32838944071577
279,0.0065494481453749,-0.0094204960013098,0.33202741527757
280,0.01085406326093,-0.0012651141342499,0.33188120150176
281,-0.0037944938168751,0.003077046858158,0.33410135874586
282,0.0066037303351031,0.012446944457909,0.3401650063508
283,-0.0076348690744776,0.019366855946511,0.34261249168545
284,-0.00060212801460038,0.011903076578481,0.34428179524201
285,-0.00048368564906376,0.0066683166532846,0.34548001774189
286,-0.0029464001514022,0.0014927842152142,0.34684973021489
287,-0.0020248890845847,-0.0018628965090826,0.34641043843176
288,-0.017487780805517,-0.0060026649053728,0.34044935670934
289,-0.017183729234438,-0.0018837641060257,0.33453877953524
290,-0.018507403579655,0.002416383935101,0.32598460172104
291,-0.017840872328835,-0.0042630138924253,0.3190820766002
292,-0.0029995429550841,-0.0042404954950068,0.31746418507058
293,0.0051375882787315,0.011873127580662,0.31202064964634
294,0.0032452311608937,0.0091866965934804,0.30465213458967
295,0.0083624996881902,-0.0047303477701483,0.29801025428185
296,0.010490552152683,-0.0085587410715719,0.29723201234124
297,0.016344584154958,-0.00492805806767,0.29876311253157
298,0.014787403670331,-0.0017525449946663,0.30185195072595
299,0.013856954150783,-0.0026422604510298,0.30254241258302
300,0.020034652855204,-0.0092362268450303,0.3020832916498
301,0.0039333267587136,-0.0060131356690497,0.29486347504729
302,-0.0042503865377071,0.0046880060210479,0.29234372909397
303,-0.0040476096562106,-0.0050635589762472,0.2938600746378
304,0.0040355905316047,-0.02890318830559,0.30010290660543
305,0.0064419726434917,-0.028256911591811,0.30238811191593
306,0.0024359536388598,-0.010724139483193,0.29959482422339
307,0.0019710485790033,0.0084473265744253,0.29763400575902
308,-0.011434694406359,0.0063222785744841,0.28768003148785
309,-0.022036642549464,-0.0031056004321795,0.26758496432632
310,-0.018486062233684,-0.005935192132691,0.24968205179857
311,-0.014398024880242,0.005248807206904,0.23664402913535
312,-0.010971399827118,0.019896991772336,0.2255064834226
313,0.0051388245089699,0.020888850441717,0.21511453574525
314,0.0014959204150544,0.010850963926285,0.20453991500143
315,0.010468468203781,0.0020027165295075,0.20085811218874
316,-0.0059452353863125,-0.0048567716243003,0.19944538286936
317,0.0017118482300244,0.00082668054512943,0.20110242929073
318,-0.0055963419952457,0.017663759925032,0.20231810577589
319,-0.0007354554607549,0.024967253217698,0.19987976462971
320,-0.0079859308311956,0.0092246251489897,0.19981618658321
321,0.0068904737349131,-0.011105315543145,0.19750961708644
322,0.0014034788398564,-0.015458498005848,0.18824854813609
323,-0.0062697480621522,0.0046166589538147,0.17912543702733
324,-0.0014422143207627,0.016128453382088,0.17354522210234
325,0.011597694747747,0.015206800169446,0.17092318407945
326,-0.0031063799748445,-0.0077158308965201,0.16361182265245
327,0.032729608304716,-0.017160195122855,0.15559425647284
328,0.012321131457067,0.0046292887651849,0.146081305523
329,0.024121509983604,0.017413414349484,0.14150116112936
330,0.01283427519363,-0.0029676086869859,0.1259738505947
331,0.0043496736895657,0.0059692628176708,0.10362871357204
332,-0.004885481585764,0.011038763045494,0.078058935723847
333,0.0025118651460428,0.013674883206545,0.05898040484884
334,0.00051843896235485,0.0068505988811788,0.051299253364293
335,0.010268944499189,0.0017226860139464,0.049428549432996
336,0.0074907083868618,0.017625940615553,0.044707980642844
337,0.014342331170047,0.0091210838843718,0.043095897373833
338,0.015863906260038,0.0014151772735293,0.045031833750875
339,0.0049720630579523,0.00044190649230567,0.043046670957021
340,-0.0071934852265545,0.0028146685232686,0.041044392984993
341,-0.0018830137778909,0.0040772888258617,0.042543365870505
342,-0.0058481301769569,-0.00015054946099493,0.037329974434957
343,-0.015067212634189,-0.00090249202717899,0.026244187622612
344,-0.025472995031852,0.0027647499926654,0.015700622600504
345,-0.0063460148552456,0.0038266112029296,0.010575151168678
346,-0.018886158396539,-0.0068107430898652,0.010983071251266
347,0.00036675423039059,-0.01607322093586,0.011562455295392
348,-0.015312231847764,-0.017077526312288,0.0067879533640128
349,-0.017638679119186,-0.001347734766456,-0.00084351738838944
350,-0.011696303331029,0.010243751448878,0.0026227550373159
351,0.011020410943094,0.013917987057476,0.0042820762083764
352,0.024998321166255,0.015152313257046,0.0048423952999729
353,0.020467667125729,0.0088051192518939,0.0025713492907539
354,0.019101873513716,-0.011801617845251,0.0030963613776991
355,0.015966946937377,-0.018491396989154,0.0028364355446425
356,0.0038350070237081,-0.0026019164348631,0.0020580374938712
357,-0.0054774475608296,0.015530987152325,0.00076777255431097
358,-0.0016241787673166,0.016564752347081,0.0011472212096431
359,-0.00096325703308432,0.01205826895585,0.00035950285995736
360,-0.00099019620896911,-0.0020025551064752,0.0015372355377674
361,-0.001049932743277,-0.0043646841345236,0.0019590568349404
362,-0.0032942934581306,-0.0023028434967393,0.0015477800367529
363,-0.0013454246169034,-0.00841832757639,0.0013350967808014
364,-0.012298073856722,0.00057545058173836,0.00083042762777497
365,-0.010434407883003,0.040311007799661,0.0015784488985099
366,5.2356972704293e-05,0.048315166004402,0.0040802836281699
367,-0.0029985440367285,0.021320203080167,0.0038384483873737
368,-0.0058643654179008,-0.0046181778202764,0.0046891872168803
369,-0.0019520765574922,-0.0016427010195721,0.0047720750876744
370,-0.0064405596523461,0.0191578068973,0.0073196774607212
371,0.0033269284721822,0.023351360372367,0.012739381487416
372,0.0064627585148172,0.0018337663925073,0.01665055313041
373,0.0070622608461011,-0.0051403549363205,0.018938330012225
374,-0.0046522458724979,0.0034029274163182,0.025708775623045
375,-0.0070126960671626,0.013306290726078,0.030463945274323
376,-0.004867736140637,0.021669818814165,0.030273764572135
377,-0.0005492667252037,0.029361164753115,0.029454913287065
378,0.010121937034761,0.021763970446258,0.031228826900425
379,0.009231763238466,-0.00017062836552213,0.032016585946095
380,0.0064767951352561,-0.0057542384717947,0.030905650992199
381,-0.0058525232182362,-0.012595643272376,0.029015286755226
382,-0.0045341196970508,-0.0017624178711149,0.024578313071482
383,-0.013584904413555,0.011264393190045,0.017868346214416
384,-0.0071980123213576,-0.018527116089106,0.01046899660331
385,0.0069575679627088,-0.041790009662891,0.0024453962312255
386,-0.025748198006511,-0.046570110486927,-0.0028570766593529
387,-0.022747384202727,-0.013545097110697,-0.017378701738214
388,-0.03555170010403,-0.0030462576633426,-0.038917447004762
389,-0.04661741144866,-0.011750424481579,-0.060969160532543
390,-0.030528018353133,0.0005626158441339,-0.076628521748593
391,-0.0096289823650194,-0.0017805979401922,-0.09007111637969
392,-0.0099938029496911,0.004315758077704,-0.10106545172699
393,0.0024475708843556,0.010846657739705,-0.11394369593928
394,0.016396303690415,0.0095816261064971,-0.12604108663781
395,-0.0053610810899521,0.0076964014210988,-0.13784569341829
396,-0.011093651580794,0.0023026082774886,-0.15020768808497
397,-0.027102542496551,-0.0033082970719533,-0.16537544569192
398,-0.023011099871749,-0.031278758490851,-0.18202837359808
399,-0.0034956179294265,-0.018139715807582,-0.19822560347886
400,-0.013745281357582,-0.00051076530386202,-0.20922541004976
401,-0.0038369314290523,0.0074919842902341,-0.22511250200058
402,-0.019428350349377,0.015109721618832,-0.23259882121382
403,-0.022484704339645,0.0087034540850612,-0.24339918527716
404,-0.015676458769626,-0.0048256020623642,-0.2521044118621
405,-0.012305712678468,-0.012997737379622,-0.26137497412399
406,-0.012466868287574,-0.0094945556932967,-0.27470563877422
407,-0.010331458824216,-0.0053783456357093,-0.28969959135437
408,-0.0092216655140159,0.0048135296797871,-0.30420975228998
409,-0.007496681279014,0.0075325114530031,-0.31997405384137
410,0.0015583296369801,0.010359059294978,-0.32724648381553
411,-0.0010547899685039,0.002472039064996,-0.33200698664656
412,1.9773395585112e-05,-0.011554348102315,-0.33392093665104
413,-0.00077937966245854,-0.019180773935046,-0.33395901531096
414,0.0039313439646945,-0.0023945038191095,-0.33537543130479
415,0.0077789182125252,0.013728477754302,-0.33539763180807
416,0.0069172585773972,0.010197287222767,-0.33392854616451
417,-0.0025456443437195,-0.0099855108671038,-0.33613014835699
418,0.015074737345293,-0.022318139488529,-0.33809781058064
419,0.010380560488877,-0.023773872066295,-0.3394194610865
420,0.0074528836932284,-0.0034842443118503,-0.33789173719702
421,-0.01168084099704,0.017818579889461,-0.3421997928072
422,0.0034493473292261,0.024431273044182,-0.34354121597737
423,-0.0030052299761345,0.0063352023852883,-0.34277364251562
424,0.011525471091882,-0.010106133622029,-0.34415646799606
425,-0.015525355814192,-0.040714909480377,-0.34438795599774
426,-7.3449194299271e-05,-0.038995028566775,-0.34199873777719
427,-0.0038663563148876,-0.014458268563403,-0.34079289898499
428,-0.006247764854725,0.022689192334941,-0.34403141630115
429,-0.00082617933342529,0.0427638708887,-0.34419449755527
430,-0.0092224949202955,0.028043415008921,-0.34653586962163
431,0.018221299667641,-0.022597684622625,-0.35173621073608
432,0.014448726734337,-0.029765619148092,-0.3517748450909
433,-0.006617546238615,-0.0036634610091008,-0.35566050445888
434,-0.010413681508225,0.017583321150377,-0.35795949210775
435,-0.0042422061041681,0.016631206641429,-0.35907913550246
436,-0.0083163758708235,0.017569759693477,-0.35759011120022
437,0.008466404944045,0.019792569081635,-0.35280787356574
438,0.008306382688848,0.024648437196713,-0.35259506600532
439,0.0096319836361173,0.021573933720691,-0.35353820663232
440,-0.0016191273488485,0.0095427963383407,-0.35392420199467
441,-0.0011752714520983,-0.0046784302088302,-0.35430569868243
442,0.015452491217739,-0.0035295531919484,-0.35161966581032
443,-0.00061697730907918,0.0049638145842107,-0.35188274995587
444,0.0003382035167671,0.0031362149875901,-0.36041202078784
445,-0.0014690744716623,-0.017476246704449,-0.36794463691038
446,-0.017745937821907,-0.021446315152705,-0.37261094742174
447,-0.0022551141026258,-0.0059440293661787,-0.37355688584548
448,-0.0046140989947863,-0.0020331438628062,-0.3721311548976
449,-0.0089555933967957,-0.0042155802578619,-0.37528348412197
450,0.0060027844021977,-0.0088242450341528,-0.37371812214572
451,-0.0063223744337047,-0.0090515329802901,-0.3751786747527
452,-0.0011020478072797,-0.010904395138041,-0.37551958542333
453,0.011378565143296,0.0021178684282697,-0.3694648138877
454,0.012556663409975,0.016134179225553,-0.3695535870541
455,0.027206536150673,0.011392785921789,-0.37264711599966
456,0.017607117802734,0.0051286632535002,-0.36977323512922
457,0.0050289867895361,0.020287319154136,-0.3695167213893
458,0.039437808765893,0.046583512429855,-0.36144391996078
459,-0.0048575628700147,0.045215727937005,-0.34662162927048
460,-0.0095198623370895,0.022970672411506,-0.34298883546906
461,0.049469574413209,-0.015696713368384,-0.33545050535009
462,-0.0070070342729538,-0.03879360929834,-0.31410170013498
463,0.014575266338688,-0.039176322495838,-0.27444787066862
464,0.037758914152907,0.0013589361921752,-0.24965564371793
465,0.047083411368799,0.019783315267577,-0.22570417050779
466,0.033256971856024,0.020633840271366,-0.18831784942338
467,0.025070921473409,0.0091861158948246,-0.15478159775123
468,0.019799420492323,-0.0038231966998594,-0.11808593148405
469,0.0084652636786286,-0.0097570042673528,-0.097464473932616
470,0.0080008856002784,-0.0038513273520656,-0.08424942197875
471,0.0027003903571852,0.0037459810593542,-0.078908979087151
472,0.0010607682039209,0.0056677322505361,-0.081563948888006
473,0.0021155422755488,-0.0035413977088364,-0.079194447331103
474,0.0074727767595042,-0.0024810921135822,-0.079164689809931
475,0.0058671709354666,0.0026656343698809,-0.079397589109736
476,-0.0017640957261873,0.0062638104870497,-0.078646546293484
477,0.0052250210854389,0.012662861235752,-0.076640488670075
478,0.0017768593841934,0.0075831095679935,-0.069255284414273
479,0.016136747438845,0.0017044362842752,-0.055172061114496
480,0.021606309670333,0.0030301256737296,-0.034397206566653
481,0.027408929474159,0.017194827964402,-0.020728064020942
482,0.023332645205034,0.017805654754671,-0.0048098777632368
483,0.020687634122804,0.0028117319605839,0.010331523860339
484,0.040511100510731,-0.0032830506037265,0.028282085823195
485,0.021674345482966,-0.012664568828379,0.046947655472669
486,0.0096019327879448,-0.020523349389181,0.072649200850532
487,0.0067188123789864,-0.010961616305924,0.099389129455767
488,-0.0093970920210373,0.016351575650684,0.11704518338351
489,-0.015239454584279,0.026431774510513,0.13554795630602
490,-0.011165716570483,0.0033641991402956,0.15842068634097
491,0.0031386847135831,-0.012970312580308,0.19440813109813
492,0.024196514700511,-0.0051527161462411,0.23191810186988
493,-0.0057606548499848,-0.0027827275271587,0.25886195630679
494,-0.0016178272870405,-0.0036267065036518,0.29423440589321
495,0.01149437715229,-0.021361478158364,0.33997227551675
496,-0.0081902526382839,-0.020552489810472,0.38511577272071
497,-0.0080635273174308,0.00092521176101952,0.43859512396535
498,-0.03449557188312,0.0091417985646232,0.48110631574587
499,-0.05883812498231,0.016432205230033,0.50773892469611
500,-0.075119861568246,0.023532644419008,0.53862423545841
501,-0.076348935029806,0.037494765098066,0.56005664824743
502,-0.074578023886669,0.043144067838735,0.58097114269772
503,-0.068826691912167,0.052616047689705,0.59809252482413
504,-0.04932493078321,0.052402736391048,0.60526816046046
505,-0.061998396828494,0.043604680490461,0.61109902045358
506,-0.02588824928812,0.018091050674804,0.61621783514489
507,-0.021981559793362,-0.0024511566442565,0.62497549538424
508,-0.026085488990177,-0.0063867533257094,0.63449262400822
509,-0.013025496291604,0.023799999667373,0.63184312214895
510,-0.014156391298767,0.056182442894191,0.62731674931404
511,-0.015604596954298,0.098460537662896,0.60104574810495
512,0.0060365701678698,0.095413418798978,0.57501335941245
513,0.037225853188622,0.064090662865217,0.54462242679719
514,0.026874715862532,-0.0086109394643497,0.51385519525407
515,0.013761430866974,-0.064681061317934,0.48487472985374
516,0.016792879803364,-0.090916954427757,0.4408031644164
517,0.019266239640436,-0.078874556344743,0.39636612871934
518,0.012924844131484,-0.036417793580027,0.3658256480811
519,0.00537247352326,-0.0050929852508926,0.3484735964922
520,0.012420422727141,-0.012496514342901,0.34042249193798
521,0.00036711228174191,-0.024874792231257,0.32328647638808
522,-0.018516100062542,-0.023428284050673,0.30670776258629
523,-0.0075923374385277,-0.011197576272239,0.29645802881126
524,-0.020679658267806,-0.0060721376969712,0.29907723807919
525,-0.017410575525705,-0.0071403372250878,0.29992810205987
526,-0.0069411477348138,-0.0059659079722327,0.29831022503847
527,-0.0021628730171472,-0.0022203610918456,0.29264151369618
528,-0.014505543887619,-0.0046721254275489,0.2866992303262
529,-0.018997313684301,-0.0027371939845336,0.2885234108185
530,0.015689083348079,0.007950890603828,0.30455177934869
531,0.01374809143993,0.01026250350814,0.32562379627549
532,0.012604438560945,-0.015459020201772,0.33843602344468
533,0.010432495987369,-0.025167070421402,0.3530553089522
534,0.0072637466270215,-0.017310389130252,0.37188600848852
535,-0.0083638346868032,-0.0078824096869838,0.37605396159513
536,-0.0007662505859415,0.00097747038861865,0.37506528086946
537,-0.01850221466094,0.0026249542872012,0.37610007754886
538,-0.0021739390672796,-0.0065731089545709,0.37599796968977
539,-0.0034995568606464,-0.012665181095807,0.36806486611128
540,-0.013014825205136,-0.011107266414213,0.34736362034248
541,-0.018671957816665,-0.011123806143148,0.326658565011
542,-0.014995977176202,-0.011047592180188,0.29587833535564
543,-0.019585381007107,-0.019975743555793,0.26431716151794
544,-0.01802673140039,-0.033072029620201,0.23547087251942
545,-0.0086977361154309,-0.028158730617107,0.215165723838
546,0.0034829096378759,-0.0035048905409125,0.20510245167221
547,0.028643556016003,0.02173030148547,0.20365799962929
548,0.018972773994459,0.023843329530338,0.2018787151796
549,0.033565109097842,0.0049842221447193,0.20330377868405
550,0.02107494439397,-0.0043879427339483,0.20320149951928
551,0.0097557776904986,-0.0054946603152992,0.20319035830234
552,0.012778152013891,-0.0038336325308674,0.20126498623331
553,0.013986805893756,-0.0015443781943352,0.20588160241378
554,0.017812749953474,0.0075135699601724,0.20647641483142
555,0.015198960458517,0.016124826424369,0.20829385572057
556,0.013735421193003,0.014674447328184,0.20807089738925
557,0.02394317747625,0.0047049762888868,0.215258818343
558,0.01574026481118,-0.0058786562489962,0.23320535115064
559,0.020011607620471,-0.0026087774932282,0.25079362877414
560,0.009597030821806,0.003702752170791,0.26231055394302
561,0.0026458193124264,0.012255118796427,0.27068024229053
562,0.0087442906070076,0.0088052633381463,0.27691800714065
563,-0.0017831692867701,0.00092986110937066,0.28062139196256
564,0.010087191714493,0.0068491986561811,0.28239865278571
565,0.023748777870422,0.0084622382748881,0.28417988068859
566,0.033736005118682,-0.0012969046065902,0.28402764529563
567,0.023560198377751,-0.011633944029841,0.28159673100771
568,0.016328144372642,-0.014218233526944,0.26769788601731
569,0.0059432363882683,-0.014599364710692,0.24311253403814
570,0.0027624825120104,-0.00093485177335308,0.21332112751209
571,-0.014696875079088,0.016811191798693,0.18461726594704
572,-0.019937755704112,-9.4433553240865e-05,0.15178368538357
573,0.0047329053820175,-0.028903628754614,0.12304989467012
574,-0.034263573097162,-0.032956208141974,0.0969250630327
575,-0.01275630416555,-0.00061944595953829,0.074872877106994
576,-0.0022638442463978,0.010306497090153,0.059143621390413
577,0.0071074615423328,-0.001694923943581,0.047090860275728
578,0.012256623583218,-0.018196425379338,0.041768319748142
579,0.015681419731785,-0.021689774147481,0.03842810774065
580,0.008892199398143,-0.0051230230944133,0.032181208865245
581,0.0043045044073496,0.0077214385874969,0.028896658833202
582,0.00056794059371401,0.013055233778402,0.027564368438081
583,0.0012770725180384,0.0084479715735428,0.028785461659839
584,0.0045761248218111,0.00092821886414036,0.028436512687583
585,0.006276338274597,-0.010355647445198,0.028698523280228
586,0.0075530293705706,-0.0047524931314175,0.027884451414777
587,0.0092493841519864,-0.0065158774016954,0.026161278912926
588,0.0021991108933574,-0.0056731184518139,0.021112028628199
589,0.006235352036736,0.00085312505788284,0.017894036362995
590,0.0097111556859848,0.0071428253792729,0.015503728423187
591,0.013606999379624,0.01357220771595,0.01532366907859
592,0.016059941453685,0.0091673460572138,0.014919567973011
593,0.0096051464236826,0.0026511206741792,0.017371130954657
594,6.2141051914142e-05,-0.004361526772859,0.019386926572561
595,-0.005113716458729,-0.0061739418551642,0.019866438864431
596,-0.018167893444389,-0.0050219768644244,0.015880913072113
597,-0.012092106166469,-0.0031830087349053,0.015896636320141
598,-0.0073461575423769,-0.0050589080460588,0.0198548777718
599,0.017967972364228,-0.00012846472731712,0.027204845638978
600,0.013690176342855,0.0005953156838642,0.03506124274331
601,0.038618376644989,-0.0087466014838284,0.03757676191339
602,0.0073678155229919,-0.018043257164788,0.039018869949705
603,0.0075298078302089,-0.035136850384028,0.038761349589467
604,-0.0030690130305868,-0.025536963266935,0.036631286742364
605,-0.011175650642659,0.0099657465809563,0.033767828868042
606,-0.0016981984546327,0.022811723597139,0.03622787422705
607,-0.0067059431776071,0.020164169140395,0.033958706881847
608,-0.01215566583042,0.028790405139534,0.033445404015368
609,-0.014433789979141,0.022766130324406,0.033619420889635
610,-0.005179896414395,0.0062362916426806,0.031898252582267
611,-0.018449139359921,-0.013453460886521,0.0320650891911
612,-0.019261743955175,-0.020081986343067,0.030487245996525
613,-0.026447707374708,-0.018309332330088,0.027227784301994
614,-0.018552806115818,-0.017513175156078,0.023178536221622
615,-0.05053090201168,-0.005096231727443,0.019533902719647
616,-0.014478455614841,-0.0096744160985282,0.013454801741495
617,0.0038045576090237,-0.021872356459908,0.0075297631123023
618,-0.013467886547923,-0.036709636978932,0.0029165837872907
619,0.043205439425028,-0.0048279431921746,0.012168177789504
620,0.05668452014833,-0.0022600300491493,0.010100981258801
621,0.038012270584176,0.002574260651202,0.0013910109438653
622,-0.011070868384878,-0.0047045571521702,-0.0027648792460031
623,-0.031890780685205,-0.019572580128413,-0.0098151812783061
624,-0.055613393812919,-0.021074245312873,-0.015540876315405
625,-0.038484900368596,-0.0016303503513164,-0.022502821727602
626,-0.016705927321225,-0.0009729503617189,-0.017168811572414
627,0.0033645450227514,-0.0082124324668378,-0.017490105054254
628,0.021041241894639,-0.0039412424980225,-0.01528683579167
629,0.0053396083231754,0.0008959686572729,-0.015537516233543
630,0.0051064786280158,0.011207347975393,-0.017012156375708
631,-0.010922244801225,0.01556077888759,-0.016429839083741
632,-0.019003095077162,-0.0010698923779278,-0.018138300636657
633,-0.013607185655167,-0.018916644780955,-0.017673459090776
634,-0.019015213752871,-0.025422917766413,-0.016553253156343
635,-0.00073977224919229,-0.025129085830667,-0.010333344679215
636,0.010072509762616,-0.0020421056616267,-0.0059207287779481
637,-0.0014069172386834,0.022273156369186,-0.0054829831640694
638,0.019039090268598,0.018485376563146,-0.0055999571839067
639,0.0083200841511928,0.010168538215548,-0.0049393453678414
640,0.0071715816068436,-0.00020728804128703,-0.0028389843408511
641,0.016795626591445,-0.037442751505901,-0.0017882614937429
642,0.016109209638951,-0.015068011238342,-0.0023034159619879
643,0.0028365819094239,-0.0068459388776271,0.0017656318773396
644,0.0075791166417586,-0.014779673261813,-0.0012669172490626
645,-0.0041697988337338,-0.0086399735746577,-0.003010888617122
646,-0.0027527912173679,0.013704519870221,-0.0033393108168163
647,0.0052352004381734,0.013931431893338,-0.0018404870709238
648,0.012792258311772,0.002701940783406,-0.0017626635888441
649,0.01758632062166,0.001392185114252,-0.001993209045535
650,0.016197845553605,0.0077938605004388,-0.0032423156003943
651,-0.0014671636474506,-0.0026438019627937,-0.003483663211831
652,0.0058019879323309,-0.023382341568658,-0.0038242403968471
653,0.0083145781475957,-0.034184639255567,-0.0043723584874415
654,0.0021636986290898,-0.013895710238166,-0.0040409682193479
655,0.014069479807671,0.023097699587192,-0.0025719512777463
656,0.017537435150792,0.032701260804153,-0.0024929456350885
657,0.016925213046617,0.019925509002662,-0.0037753285356072
658,-0.0035597748084158,-0.0033363841431488,-0.005414125327019
659,0.0096275601847018,-0.0092733240355413,-0.0087682435988545
660,-0.038524843550581,-0.021811608987667,-0.0185323190107
661,-0.0067753084446905,-0.012123638349199,-0.029085517604207
662,-0.020188016208653,-0.001280465222742,-0.03922553163142
663,-0.005924579720984,-0.011042379390912,-0.04581392362263
664,-0.012622843168481,0.00074887896560122,-0.051397419950561
665,-0.0090161976488154,0.01477211919887,-0.053006703298587
666,0.02550309982768,0.039703487682206,-0.052885584590266
667,0.011335526380384,0.02581240650641,-0.05018891170654
668,0.031843048399877,0.0065481880681565,-0.051871118962749
669,0.012470710956621,-0.0069619020557064,-0.055313919265054
670,-0.0028945506482678,0.0019998704695022,-0.057621029086244
671,-0.0030325037883923,-0.026503694944191,-0.057314439669202
672,-0.026078356756326,-0.02352309036898,-0.053258191480261
673,0.0067085950048311,-0.015684233712147,-0.0530607273011
674,-0.023556904633812,0.00064041586952048,-0.058395469900966
675,-0.0056419051718327,0.011075538865032,-0.052690858264002
676,-0.015563433007186,0.02739739846665,-0.052389826744368
677,-0.031282670309448,0.037434210893791,-0.055021115143425
678,-0.003015362748504,0.016264541228732,-0.052930085889778
679,0.0069200453474491,-0.045620779949753,-0.046391400581369
680,0.015249905394377,-0.073801859426118,-0.046876385993408
681,0.038764669871608,-0.037926822466449,-0.046547495210857
682,0.016631089833213,0.025782345739525,-0.054043920777256
683,0.025329494212533,0.029560383841308,-0.056153240504081
684,0.017452720867151,0.0086843093813519,-0.055175970425176
685,0.010291502118948,0.0017383503457501,-0.055220898212408
686,-0.0051134667828406,-0.0019231659724712,-0.055119327289671
687,-0.0045499558479382,0.0031038644032754,-0.052791766227482
688,-0.015320372834636,0.0053034227038539,-0.048038626043721
689,-0.043824545072456,0.0065908313119971,-0.04879460914094
690,-0.031832605051544,-0.019098447852861,-0.052853401048476
691,-0.026449650295933,-0.00527025393518,-0.059772685423912
692,-0.00855818621833,0.03363983126425,-0.060944219621167
693,0.010186778900164,0.015608964913192,-0.055197968536923
694,0.016310020967165,-0.0051279097570369,-0.0548695216378
695,0.0004344421725577,-0.0054172377543233,-0.060490695642198
696,-0.019234324200035,0.01210720967801,-0.067035895339777
697,-0.024949334665534,0.018892982545371,-0.068410239262555
698,-0.010019616035653,0.0090811172576319,-0.068671105284078
699,-0.011577521429004,0.00011598001267482,-0.066126013756292
700,0.00051583424970623,0.0014362420272027,-0.065513800384689
701,0.00096605536301119,-0.001359567176665,-0.062081946110308
702,-0.0018264322299465,0.0010573417525843,-0.055630491052034
703,0.0079596731120048,-0.0038464749263025,-0.048624370880608
704,0.014094808998482,0.020494297989949,-0.049018758331945
705,-0.0012554715836915,0.023343747968343,-0.049179667139888
706,0.0028161607505672,-0.0015274956401303,-0.048222646894467
707,-0.010678354460904,-0.001843811174478,-0.052510796214175
708,-0.03708946595378,0.012171885299244,-0.055842576838753
709,-0.016817317216977,0.024858295840829,-0.055757075507797
710,-0.0085614113237105,0.0080661468355053,-0.058442568943688
711,0.010785591294409,-0.068810312832616,-0.061147041536486
712,0.032233723477014,-0.020581833310754,-0.054376771564535
713,0.0314660142974,0.02798115490089,-0.060607363818164
714,0.014186306412304,0.036288145894563,-0.065775887889582
715,-0.00035261844781592,0.006163906605655,-0.071635333271516
716,-0.0092468544807583,-0.010426827726725,-0.081806433005932
717,-0.015250346652367,-0.0061965911641166,-0.089784710694812
718,-0.0099549034931822,0.015530782521025,-0.090412394280089
719,0.0037013049306707,0.030280780783382,-0.08966408635904
720,0.0026204642428222,0.030499233328538,-0.088653202575485
721,0.01701578852822,0.02611904073908,-0.087832200789609
722,0.016865965135722,0.018089751939705,-0.085765094945785
723,0.0070157095012809,0.0059130310102364,-0.081271089425508
724,0.010734975326119,0.0099351424984968,-0.074784562972972
725,-0.0050739637830796,0.023349808608871,-0.070770056522543
726,-0.018348028884223,0.020534250610684,-0.067706302714733
727,-0.023504833907404,0.019011668009258,-0.066496906068712
728,-0.01124040309167,0.021319125417572,-0.067239076642259
729,-0.0056730836116045,0.019697397232915,-0.064083315843464
730,0.0059257891144869,0.020922447565258,-0.060856300455475
731,0.0039907948132059,-0.010539628419166,-0.057259931658446
732,0.0074877873538098,-0.0055110617689173,-0.054995517809099
733,-0.0084176602644015,0.017409878601669,-0.054321842855278
734,-0.011187863372857,0.018207350192894,-0.054350695978621
735,-0.021739493249211,0.021424706344252,-0.051748486399866
736,-0.027582439517096,0.0037958619060412,-0.049567378345389
737,-0.008137817837957,-0.032505558021028,-0.044713912509305
738,0.035856204811947,-0.032528720376478,-0.039627549855828
739,0.017820555551468,-0.01410043284873,-0.034911546054264
740,0.03405252772994,-0.0030009733213673,-0.029945651410472
741,0.0079192011131261,0.019131164225155,-0.031978730394145
742,4.4443098771196e-05,0.02974855362351,-0.035829136708271
743,0.0029334818719844,0.034235945846646,-0.032257230661908
744,-0.0056911770816988,0.042226251015926,-0.02831598092129
745,0.011878027457729,-0.0079854475210732,-0.020995050712161
746,-0.0057972671632034,-0.023790119918284,-0.014595757201239
747,-0.0053180812916095,-0.0071996642738935,-0.011122916585741
748,-0.0030412487809827,0.012561926269728,-0.012789078015535
749,-0.0031813588011853,0.016867186363561,-0.012958734710993
750,0.011171630297903,0.020429611448431,-0.010132631531669
751,0.012306378948877,0.013612012525951,-0.012184458372385
752,0.012717912403552,0.0081308981103372,-0.011928877318886
753,0.0027799578422099,-0.0029966468265679,-0.012834948009994
754,-0.0098866161959214,-0.001922183357107,-0.013866777052529
755,-0.02284316255301,-0.0065507024197527,-0.013451837056287
756,-0.037509009628875,-0.01197409889614,-0.011668078275645
757,-0.032174050282285,-0.0036168916839237,-0.011288432320139
758,-0.025213804277895,0.014772244442687,-0.010115473860405
759,-0.017222841179916,0.0076877491039668,-0.010212447910088
760,-0.0088337921071125,-0.011902153923354,-0.0055041737757092
761,-0.013210723458755,0.00041677110627371,-0.0057634388668954
762,-0.011411476203802,0.010188038860563,-0.0073613722358398
763,-0.00090320074102001,0.014864857230069,-0.0051377220475895
764,-0.0021632761011826,0.00094478333159191,0.0016937304916779
765,0.019114140505117,-0.021336125103687,0.010342561727638
766,0.018376802238695,-0.004820589595202,0.014572395946248
767,-0.0052354943971412,0.027936369536659,0.010674996748136
768,-0.0019588609135554,0.027125680668438,0.0065916596934265
769,0.0022034445060559,-0.0026250855013256,0.0046774106456563
770,-0.0024236905375331,-0.012594039344794,-0.006339344498743
771,-0.005934283145814,-0.001452491481632,-0.02067979594952
772,-0.021197417837256,0.0085890232622332,-0.038755181175321
773,-0.029706315943651,0.020552283759282,-0.052791521755466
774,-0.029655421530119,0.014662696239619,-0.064404952124011
775,-0.017538104836181,0.0044710638418131,-0.073935818560715
776,-0.0062478784104721,-0.00570939017593,-0.080832835009901
777,0.016803336802883,0.0047606209218213,-0.085086109672509
778,0.019640219757655,0.028975717237499,-0.086070858699983
779,0.040118585613966,0.035155872876597,-0.085926640229244
780,0.0016967906355659,-0.010181675929605,-0.081776982345759
781,0.00088302614808581,-0.053722871561989,-0.083522092603934
782,-0.022312474611983,-0.046735903534855,-0.082572696243758
783,-0.041878942208809,0.0048239809431452,-0.082217148048767
784,0.018756391175089,0.047522612363635,-0.080611770576577
785,0.02133139338214,0.044241932649061,-0.066825408362074
786,0.047994688731439,0.024715703718889,-0.06179894495933
787,0.0058863165981449,-0.011912983773174,-0.055214893017925
788,0.011792656499434,0.011124932867146,-0.062886974539923
789,-0.011852665631449,0.057046004072098,-0.058116583936544
790,0.018038008498069,0.014002981168035,-0.054239824517924
791,0.042366182318779,0.0064855917587006,-0.048591274649716
792,0.020487035682012,0.0072823828755364,-0.051065555179412
793,0.020675089210161,0.010889818511278,-0.047970874964639
794,0.031993648441845,0.016270954017948,-0.04111097530166
795,0.033961222574403,0.024939795106049,-0.036611429148694
796,0.038049578138966,0.016307708222348,-0.025039520674761
797,0.050518077392048,-0.0084063482049139,-0.017784180138842
798,0.013153492144199,-0.011486611661536,-0.014628635346483
799,0.0049476773286402,0.014926437849786,-0.018929790891115
800,-0.021520877558464,0.002647429499022,-0.019052411426031
801,-0.01027859363764,-0.0059160082132697,-0.019716470959127
802,0.0028431786825131,0.0022839167562185,-0.016732217144759
803,0.016070735833231,0.024585214948959,-0.012976496400891
804,0.0037251564702018,0.037851376677332,-0.008308514574935
805,-0.01955760548115,0.025397826101764,-0.0044572335972864
806,-0.051533365106271,-0.0077708249181634,0.0048763210005936
807,0.020454591012846,-0.045523243270134,0.0041650935023191
808,-0.0041862902652486,-0.041046353495389,0.011587520033423
809,0.035844871773083,0.065052619308716,0.020782253861503
810,0.069053371413011,0.071345770799294,0.018340478618499
811,0.028953910587133,-0.00019513550080886,0.0088426858189299
812,-0.0037687854953705,-0.046428370746775,0.0061938851570939
813,-0.025390259263147,-0.015295987520953,0.0083643450058148
814,-0.015457871478943,0.015585086643291,0.0042750008783702
815,-0.0014838161806776,0.034680696974412,0.0035641073415054
816,0.016227585976881,0.04114768069444,0.0054660559541931
817,0.020297189654469,0.023379650045734,0.0077543316156713
818,0.0053505100948025,0.0022669508425757,0.0068742487875167
819,-0.0095093888546648,0.0018525685598999,0.0061017586411408
820,-0.0085712882861077,0.022633463529563,0.0010943119533633
821,-0.012126835205588,0.018973340137736,0.0020919786480932
822,0.0042695639813026,-0.018742547093536,0.0064755755873083
823,-0.0029391692557136,-0.0094598781576979,0.0012069055924949
824,-0.017063300861199,0.011225701805493,-0.0073089043112669
825,-0.02208564909697,0.0048966580696826,-0.011215924300787
826,-0.0082503097634597,-0.0012005295852155,-0.016053622037551
827,0.0079144728674893,0.011382516346637,-0.016776331558082
828,0.00669611501438,0.016023454462597,-0.014507058298907
829,0.014164203906055,0.009057382396192,-0.015727309212291
830,0.0089848178561651,0.00029195691963778,-0.017419978001007
831,0.0098979082399522,-0.016679099478269,-0.019507954031366
832,0.0074328028081504,-0.013004801281391,-0.019206408336263
833,0.012330808509369,-0.0017169531426646,-0.01698298120812
834,0.0010311168556608,-0.005462970588419,-0.017704513088502
835,-0.015671074010515,-0.0044868067744422,-0.027594935623417
836,-0.025504010731638,0.0044687458106229,-0.038576006886869
837,-0.047173247921236,0.014568103182876,-0.041579727707412
838,-0.02303576688956,-0.018642345916849,-0.039390128199225
839,-0.012801853250762,-0.037241974864258,-0.03731336109111
840,0.010328351887256,0.0096951634471693,-0.031882934052037
841,0.0067000864985076,0.052852838066677,-0.02982898554189
842,-0.0075375354195938,0.049387260476069,-0.029664374561687
843,-0.050379540335934,0.022799997371475,-0.028920736759426
844,-0.025682121995754,-0.0041747318217906,-0.031463782664476
845,-0.032340887210756,-0.052123637002288,-0.025819567978967
846,0.045587295923757,-0.064610041637586,-0.022982690939847
847,0.040957784842157,-0.024540890784243,-0.014437593784529
848,0.031613882200355,0.041789304695737,-0.017909290949711
849,-0.0060893307566645,0.027872751197136,-0.015684091595478
850,-0.034899422626776,0.0073835225142136,-0.024905455275885
851,-0.025938024574503,-0.0037717488623546,-0.020383276326415
852,-0.043026865872747,-0.0059790675746343,-0.014831419678937
853,-0.019553651718826,-0.012512047640086,-0.01087391655955
854,0.010054715451653,-0.022733386074707,-0.0084870792238421
855,-0.0063374404644756,0.011756221730194,-0.012688921007843
856,-0.019062939142893,0.0194384031113,-0.012343840639247
857,-0.0091191352350943,-0.021210237149515,-0.009694705085055
858,0.013277046774466,-0.019100537148803,-0.010130238144801
859,0.025694422954989,0.023579628762023,-0.0049402865908449
860,-0.01006366308989,0.0077449845889871,-0.0010023011244627
861,0.019940072353856,-0.023147990128192,0.0070405455602599
862,0.016409939050216,0.0011074290119579,0.0063760911193817
863,0.0096474462813665,0.018849382990282,0.0059887623235461
864,0.022696219346957,0.01579245649404,0.0040473392772936
865,0.019517559758708,0.0052864755342206,-2.5421551807477e-05
866,0.010429109133919,-0.008524683610942,-0.010149716679548
867,0.0086632874214434,-0.015345163374247,-0.023541391830244
868,0.0089738709220534,-0.011187988650589,-0.032086933473288
869,0.010439693008749,0.0037250035567526,-0.036018037100524
870,0.001561076357551,0.006860670561949,-0.03594367959197
871,0.0095431444437997,0.0015089752615945,-0.038244999552321
872,0.0004323235969022,0.003782101214213,-0.037972494230263
873,-0.0051329985434041,0.0078818806237799,-0.043542283883686
874,-0.0066634549091049,0.0075047833068955,-0.045497134792088
875,-0.00029586370587092,0.0100271243981,-0.045092981326922
876,-0.015793550985428,0.0003845544263571,-0.038703252910359
877,-0.021354528499302,0.0083250199306734,-0.03454731994344
878,0.0012293809627875,0.0029918955418663,-0.029395527196699
879,0.015830679576669,-0.016342083390289,-0.02358146622474
880,0.012341020644595,-0.067962637933411,-0.014618112650155
881,-0.0011101234321369,-0.042291113781085,-0.0079482955953849
882,0.02831673305789,-0.012105205325963,0.0054540434768358
883,0.021907170004021,0.026740900205253,0.011684836326363
884,0.025807878041065,0.028982388254269,0.01046131716286
885,0.027470290372115,0.019091925443374,0.017069512427625
886,0.013503669655808,0.019878780961062,0.016142971399764
887,0.024846439781325,0.014695963272957,0.015385020624575
888,0.019411327397917,-0.00054873072992322,0.020246010472102
889,-0.0061795973481911,-0.0049245185171678,0.013821399211498
890,-0.048159470842527,-0.018166237820919,0.0098757011591671
891,-0.038143099744666,-0.0216323391047,0.0077061032370671
892,-0.025687688987338,-0.023887302853338,0.0088882143624271
893,-0.027486830086529,-0.028050542471404,0.011002768894812
894,-0.068263850165776,-0.02344799933126,0.0070893840763252
895,-0.078377775959881,-0.043610603559427,0.0039339859161054
896,-0.033217038785108,-0.02930452607818,0.018076065163277
897,0.018476067814599,-0.013802573615391,0.033299541396103
898,0.030268014686293,-0.00092400758282233,0.057240934225109
899,0.016073093943763,0.021625667438313,0.10331469961696
900,0.0039099732326216,0.023685082452629,0.14890947574273
901,0.026004308272102,-0.0074520576992382,0.18792303273827
902,0.02563646458634,-0.014979317907726,0.23557492386035
903,0.026793622224772,-0.0082322221827876,0.28232104244322
904,0.030050943576803,-0.0045576855430894,0.33023553197512
905,0.030051138634478,0.015295156389622,0.37550405653549
906,0.0057585440079699,0.029684953088506,0.4117277376597
907,-0.019261679907427,0.024609790699324,0.43155111123392
908,-0.046956484224789,0.020246025793937,0.44070590785294
909,-0.043387255643822,0.014841337479452,0.45241269914672
910,-0.021164568589055,0.0076386318320103,0.46331293559019
911,0.00087407267986495,0.015029790204767,0.46371734242263
912,0.027627804143689,0.02797884979955,0.46261826066344
913,-0.0028889512914754,0.046667702484255,0.47228582666085
914,-0.034323184191711,0.058359855538709,0.46954155826148
915,-0.023058967244944,0.057794220048021,0.47894899679793
916,0.011872520899152,0.029156356417661,0.47730764468238
917,0.055363255036475,0.0026103586361793,0.46018031928096
918,0.0357550002539,-0.012621444212592,0.45303046229238
919,-0.00089668150305397,-0.002847000267644,0.43708649341253
920,-0.018121636295939,0.011448342438183,0.41658785632907
921,-0.005275817862976,0.0027688300643334,0.39804241162089
922,0.035937180201771,-0.014276503567143,0.3883026736632
923,0.045552860727156,-0.03510947526093,0.37314053071185
924,0.026666336420816,-0.040210551914463,0.34627722255712
925,-0.023245551988515,-0.015208446461201,0.30750500780829
926,-0.049832145559016,0.015818997117396,0.2535915043651
927,-0.040548849639779,0.033975650201132,0.19794297497395
928,-0.010369431852068,0.048694878107696,0.15291154573427
929,0.011999757703123,0.039363276991278,0.10194492182629
930,0.00090201935412742,0.008822423508237,0.070787348598802
931,-0.0067832315907222,-0.0053464760761224,0.049195041835918
932,0.0063064647492921,-0.01302312527338,0.030380625558862
933,0.020164198246443,0.004172881185702,0.023149285407945
934,0.015529189094156,0.024579916835583,0.011836739404834
935,0.0028624532878051,0.025156723333002,0.0085587214565881
936,0.0012038746051342,0.0097689911484838,0.010021123262445
937,0.0075665513718514,0.0022551461755366,0.0024573518703466
938,0.0035231395042966,-0.001909826549491,-0.0003227688257292
939,-0.0055874252256704,-0.009055115311408,-0.0048401941935818
940,-0.0031108436697524,-0.0057237227083764,-0.0045566449645058
941,0.0066087693623115,-0.005780307432888,-0.0015214384026204
942,0.0088976273877801,-0.0025157906940293,-0.0041389309170976
943,-0.0019058540842964,0.0085698798869651,-0.0029990146225716
944,0.0011616182502626,0.014079758146213,-0.00098735984200821
945,-0.0017182185835593,0.036110980766917,0.0017060537363107
946,0.014592920023195,0.032928800966626,1.534134882844e-05
947,0.010299128600517,0.013856845212876,0.001005764136708
948,0.0061661258365056,-0.017860012936698,0.00091535399924786
949,0.008583688967665,-0.016059563927677,0.0010297637488679
950,0.0014516590003061,0.0072699192400247,0.0028694014562308
951,0.010985630497863,0.025426460995553,-0.0024226104872687
952,0.0072451861978008,0.012181096064608,-0.0023627251652511
953,-0.012310254858806,0.0076697224192131,-0.0028453454891557
954,-0.014464243898467,0.021825939027593,-0.00064365591562666
955,-0.0049483697567039,0.030823068275844,-1.6519280807594e-05
956,-0.0092697283677676,-0.0011650773499173,-0.0037496296689705
957,-0.008374148950346,-0.039349716833996,-0.0056633736150299
958,-0.010296209496141,-0.034307378445343,-0.0030187472456051
959,0.0067213350767355,-0.0080959052877211,-0.0019792590897434
960,0.0076704257510017,0.014921371546553,0.00019706910855807
961,0.0066188984251814,0.032115630596813,-0.0029942274860433
962,0.0056751733798256,0.031670695782231,-0.0020901380998371
963,0.018373793348592,0.031344349719349,-0.0016579062220174
964,0.012481399928321,0.035311968702212,0.00057683900171603
965,-0.0087372371325002,0.01196211709644,0.0030196421740805
966,-0.04070481114858,-0.084516824790501,0.0039435285218035
967,-0.026306714435422,-0.13787614517981,-0.0014757895005926
968,-0.036591435254433,-0.095111318484529,-0.00088880657855133
969,-0.038547816895573,0.040371007044191,-0.0032501956944515
970,-0.018081716029973,0.097484735437299,0.004750989400674
971,0.0043038937467481,0.066256657574569,0.00563785528235
972,0.014462706918813,0.012511024694263,0.0086440983510429
973,0.0077277308253257,-0.018570196677872,0.0060465425751453
974,-0.023714891120183,-0.020560001157714,0.007113358635498
975,-0.015106693048823,-0.013187042809456,0.0055016135942431
976,-0.022488967272569,-0.0016218113802939,0.0085620872152439
977,-0.015646367301723,0.00050769385217902,0.0085523263709512
978,-0.010796753647447,0.0084136497629593,0.0084672890242846
979,-0.0096189379412672,0.013571392461777,0.0071446128819672
980,-0.0091560680318265,0.024705193240672,0.0055432119166387
981,-0.0095150611830934,0.027513671349534,0.0077358149008958
982,-0.0089856668132847,0.019473112023068,0.0061487167052178
983,-0.0035656597966798,0.00017995328385924,0.0035799922049173
984,0.0046045507083531,-0.017441070163344,0.0018430388392916
985,0.0024056052752149,-0.024144579175517,0.0016402404639591
986,-0.00051697780055474,-0.012396161826552,0.003512928478791
987,0.012073346272202,-0.011393651881938,0.0021318227893371
988,-0.0021661187903251,0.00014596087903894,0.0030269938925795
989,0.0030644439673409,0.010797911881696,0.00038280462513961
990,-0.0061662998456206,0.0068067718994761,0.0024155061281112
991,-0.0056048667038647,0.010415354927827,0.00091204795954225
992,-0.00071376709041654,0.011818858568199,9.16874961017e-05
993,-0.0097451663495209,0.010109855225479,-0.00053321084387665
994,-0.0078587389722825,-0.00096035032651678,-0.0018792079206082
995,-0.0033295244934326,-0.011398493822096,-6.8313531144368e-05
996,0.0016797224496742,-0.0028002958146603,-0.0044196002066365
997,-0.0095156648123966,0.0069666436827884,-0.0076318761391265
998,-0.0046086643266566,0.0092442541789773,-0.0073378061820036
999,0.0084387781755803,0.0094414021893346,-0.008951265982304
1000,0.0043387499832582,-0.0066769694397014,-0.0071130548549803
1001,0.0069847992820819,-0.022676003994301,-0.0084688187012876
1002,0.011808354175197,-0.020356778237704,-0.0091151235958222
1003,0.015018051584145,-0.0044010105379343,-0.0055264555999352
1004,0.0090592700232224,0.0026234854234706,-0.0077207137001901
1005,-0.0010883816556247,0.010187864674522,-0.0077792375279567
1006,0.0037072572330088,0.013792266602948,-0.0064242929247723
1007,0.0097098142283266,0.0054499853271863,-0.0078414017814065
1008,0.014006734653286,-0.0035454346445731,-0.01052256047493
1009,-0.0049256917080609,0.0019760409956938,-0.0071209796686957
1010,-0.014634294981173,0.014146936359628,-0.0071230030972111
1011,-0.0025473082774349,0.0085917998231389,-0.0089589853141243
1012,0.0041499508097875,-0.007743151798095,-0.0028905543357862
1013,0.015285599431141,-0.007489252688865,-0.0028320599032275
1014,0.0047325948717987,-0.02871722435213,-0.0024408335191809
1015,0.0016090486302447,-0.022673335681819,0.0049301740565832
1016,0.0026782655540932,-0.0046793170457312,0.018947326492743
1017,0.013330569944701,0.0079929838572332,0.027150445948476
1018,0.027376986472931,0.0094514544353043,0.054363910174663
1019,0.043306966728457,0.0032758865124899,0.091167745100697
1020,0.049262420881911,-0.0026607878991918,0.12621834881312
1021,0.041043848439559,-0.00782571271651,0.16804628951569
1022,0.031490922141239,-0.016640164673634,0.21612885769266
1023,0.03269388600641,-0.019750643239703,0.26715995956645
1024,0.034273192980311,-0.013985113308861,0.30967197076016
1025,0.036647344811891,-0.0049590839002431,0.34981839581487
1026,0.035950218319948,-0.00052715238595625,0.39471600805318
1027,0.024861876610024,-0.0020626764809048,0.43330646403668
1028,0.015062281582444,-0.003741129885464,0.46484844666615
1029,0.014295877535382,-0.0095139748812028,0.49332128053616
1030,0.0077502724188813,-0.01550832484628,0.52021199848091
1031,0.0045184881921495,-0.015058610495613,0.5359425944095
1032,0.01140858798479,-0.030829225167211,0.55929558511388
1033,0.014020941547867,-0.028558555593834,0.57400374777967
1034,0.021887202624407,-0.012875079138641,0.58803450372438
1035,0.02802856821908,0.0072732702860916,0.60519168650649
1036,0.016971678469641,0.0072140464951901,0.61734152925467
1037,0.030753442869451,0.0012170941140691,0.62252616155797
1038,0.035640781928196,-0.014037600014877,0.62804079942638
1039,0.039634508608955,-0.025588744663666,0.6246474110412
1040,0.046568958560181,-0.0282284274076,0.61492392158152
1041,0.024215618685358,-0.036300719490329,0.60596837870033
1042,0.018496640533528,-0.037582681168244,0.59043973245595
1043,0.012594528253212,-0.023768956747284,0.56845276862949
1044,0.02250464460031,-0.015297623958122,0.53921958916813
1045,0.0080538152278354,-0.038876840113192,0.49758173219404
1046,-0.029903139940346,-0.055944473570218,0.44155020821751
1047,-0.037436495320775,-0.051558002325915,0.39583838006132
1048,-0.015213526720797,-0.047301501123789,0.35041328725899
1049,0.0024325951376876,-0.013821811027383,0.31778725877618
1050,-0.019876644211214,0.014540400089337,0.2918545849122
1051,-0.035837654496444,0.020691405651179,0.26250216692445
1052,-0.017729804666135,0.011690028909378,0.24021027589867
1053,-0.0048385373678322,0.012044645693723,0.21386151895024
1054,-0.0077487474136809,0.013411053534315,0.18297316984703
1055,-0.041010473165535,0.0098555565860531,0.14917131055783
1056,-0.027066225676424,0.012724102853451,0.1029441461101
1057,-0.007931696945394,0.01165361050999,0.080777775311841
1058,0.007256417339891,0.012295056574429,0.085992625783886
1059,0.017538561435947,0.013975178955688,0.10723996034589
1060,0.0058325669741391,0.0073689105400686,0.12211662893074
1061,0.0010945470756705,0.0021573703561727,0.1183291051456
1062,-0.014978577037475,-0.0033797099990824,0.1160655524255
1063,-0.014338136612019,-0.0078161705552015,0.11424613249988
1064,-0.0073348794156656,-0.0039068995939033,0.11321098003293
1065,-0.0059607544986408,0.003989896160177,0.1149974223594
1066,-0.0058102180327551,0.0023528728980841,0.11718222356004
1067,-0.014960928886421,-0.002421569917999,0.12065256212837
1068,0.020962008027602,-0.00036851748372263,0.11994403343631
1069,0.0046734030335177,-0.0085650209104407,0.12458037850346
1070,-0.043950681182965,-0.029771810661525,0.12313890823131
1071,-0.042458817373065,-0.031480874556014,0.12162639683641
1072,-0.0056310888097679,-0.029770983215965,0.128227145153
1073,-0.0021314094053645,0.0084521129341477,0.11781412194816
1074,-0.035715740981881,0.021987983265369,0.11900313960347
1075,-0.016784733454263,0.019589267612601,0.1238055056607
1076,0.0022955909255817,0.018236156643607,0.12547395306262
1077,0.00074954869031341,0.010380615917932,0.12565093040587
1078,-0.021841508626001,-0.018236605490918,0.12324760681324
1079,-0.035966454526854,-0.037400017866432,0.12385012399707
1080,-0.0072528247068306,-0.014326027818199,0.12743770934162
1081,-0.0053595500824815,0.027706982697815,0.12867006411625
1082,-0.03335088402957,0.06805449125532,0.12653375454231
1083,-0.0024918759302635,0.062487723689046,0.12665301950739
1084,0.014019183701268,0.026411262551026,0.13362207502994
1085,0.020980788078464,-0.0089190745506675,0.12706959574942
1086,0.011025301013948,-0.014898812293182,0.1259526682058
1087,0.001504007401298,-0.010412907534169,0.12831265819442
1088,0.00014695353401438,-0.0020625106532201,0.12226473407802
1089,-0.0031836318462935,0.0012494021361941,0.11622852851093
1090,0.00084771228379581,0.00057506047905748,0.11245423418279
1091,-0.0046497244650666,-0.0037015784036443,0.11101866627804
1092,-0.011233391898554,-0.011335662552128,0.10934276881764
1093,-0.0049001216487014,-0.0062375320863457,0.10591276614255
1094,-0.0020120004223792,-0.00028214355803648,0.10092833571614
1095,-0.0065312355615825,0.00082597766361035,0.095975427313903
1096,-0.0081195709826047,-0.0069541602855402,0.089757346858515
1097,-0.014202413439537,-0.010087697838292,0.088716316123746
1098,-0.0032191521789261,-0.0021373545971669,0.085699234871712
1099,-0.0075660505229416,0.00090630373665168,0.08338888648634
1100,-0.001052489316825,0.0041843842520091,0.079872803751112
1101,-0.0019614184078411,-0.0027867782443439,0.077539416111068
1102,-0.010684624102258,0.00031055404934097,0.079837892496435
1103,-0.009888161872491,0.0060044968411232,0.075302280837828
1104,-0.0054058313234265,0.0090100600456615,0.070378424829033
1105,-0.0010533498036199,0.014764950381101,0.064884732727802
1106,-0.014931190260121,0.015999577341801,0.060142049935485
1107,-0.0030150630847844,0.018004538509452,0.057864475306784
1108,-0.012684578331309,0.0019262997877856,0.056241789999459
1109,-0.022650963814686,-0.012775034710783,0.046231399990145
1110,0.00061781200392736,-0.022364908637474,0.03860122282813
1111,0.030613149053611,-0.022135600912258,0.033917898005063
1112,-0.0039190997712435,-0.010261296010974,0.034580283471561
1113,0.0058549246259321,0.0071912483822135,0.031989801166843
1114,0.030755291287099,0.031643341399719,0.038370000916738
1115,0.018920641893904,0.028678165167248,0.040570338106941
1116,0.0094736911467796,-0.0066557357825998,0.038020485968996
1117,0.0029746870837092,-0.020515739663622,0.046144503498154
1118,0.0085825368192005,0.006422097125435,0.043381125063843
1119,-0.00093623999032844,0.038379796751395,0.044894090476693
1120,0.013773360639866,0.014843115351734,0.047406060584358
1121,0.0091325674669306,0.017687142300967,0.04857193999705
1122,-0.0015567307830519,0.028749950508677,0.044865407220174
1123,1.9161406388008e-05,0.038735788911181,0.044350552307786
1124,-0.022524123077935,0.0014205460257057,0.041161476069703
1125,-0.012741468646146,-0.031866252845269,0.035365649276852
1126,-0.015405416792953,-0.024568693847323,0.034755303976432
1127,-0.01328100447812,-0.0045007689290416,0.031823691595485
1128,-0.00088471547954147,0.0096617625042399,0.032252481769457
1129,0.0023242200453651,0.015271705350756,0.033054362810234
1130,-0.0095145753949869,0.0092123897493233,0.030134399266732
1131,-0.013656548749817,0.0094965775306767,0.025992649279013
1132,-0.0015398631603488,0.0037066372786802,0.020937864577565
1133,0.0027096799279938,0.003020064033162,0.015424274601678
1134,-0.0059508583522887,0.0026843392098606,0.011581520973739
1135,-0.0076797209293197,0.012364057684134,0.010412467954322
1136,-0.00099293073728684,0.022661932718407,0.011828990565867
1137,0.0032473899226739,0.018095016366829,0.0080791817124822
1138,-0.0032855916628444,0.010300916164829,0.0068311855631537
1139,-0.021745103528091,0.0071286641209809,0.0039711880648511
1140,-0.019627664009511,0.0089123975640847,-0.00081882933862024
1141,-0.0041916693187324,0.015926561693965,-0.0056323035741117
1142,-0.00030943497566363,0.017869146002727,-0.012381965805974
1143,-0.0021018239540438,0.011117748879212,-0.015969696288482
1144,0.0016806929134182,0.0044376932180708,-0.018588724101851
1145,-0.0055416072975145,-0.0024753864921421,-0.017976139444025
1146,0.0033568630425026,-0.0072025492591499,-0.019521996112661
1147,-0.0013504939052105,-0.0085185515743693,-0.018437716429407
1148,0.014908887934766,0.0046306440202718,-0.019250927650404
1149,0.015856830327864,0.0070602828159547,-0.01709088829992
1150,-0.011356092576192,-0.010557828215715,-0.015974590614587
1151,-0.052879238559144,-0.018273230311113,-0.014974919156309
1152,-0.014935799948726,-0.024702530436834,-0.013478613797584
1153,0.020364844829547,-0.030189675909961,-0.0084671172965288
1154,0.036158656910497,0.0028943125951575,-0.013432715722333
1155,-0.018852895280365,0.0049692947475926,-0.011572095896487
1156,-0.024138306034278,0.012291353521487,-0.0089865847882044
1157,-0.0019153385211247,0.035976295632451,-0.0047889960145484
1158,0.031622116387736,0.033938986024096,-0.0042563826420811
1159,0.034224277957152,0.020939842150684,-0.0010975595281228
1160,-0.0095231209871123,-0.0078251981985577,-0.0070138139473231
1161,-0.042877473804171,-0.029951689993037,-0.0034710210933719
1162,-0.044578832224227,-0.027654023101043,-0.002537733978478
1163,-0.044321057418663,-0.009753683320997,-0.0064258125051245
1164,-0.059242704277659,0.027389531980579,-0.0051550925651381
1165,-0.018889355330869,0.030292094075504,-0.015850505041141
1166,0.00012666242863827,-0.033383726563295,-0.015990106089793
1167,-0.0050207601619423,-0.064906725704338,-0.018967872694333
1168,-0.026420062919337,-0.074918831671399,-0.029956925723847
1169,0.029494551167741,-0.013265441630967,-0.025805045122794
1170,0.063157260010106,0.072122329669668,-0.021723826994234
1171,0.062380580210426,0.09796452760905,-0.032298015356262
1172,0.024814039426475,0.067860744040508,-0.028497127694505
1173,0.021945910759566,0.0084038635224581,-0.031494961319389
1174,-0.0013453809118575,-0.029086352883858,-0.028022827875521
1175,0.0092212157729034,-0.037827739303831,-0.028446739094327
1176,0.030447286084319,-0.023506335361449,-0.028978231659263
1177,0.024223912653378,-0.0067537014134565,-0.024143914049187
1178,0.023761694198267,0.0035053107374664,-0.022388177226763
1179,0.023748401835755,0.0037298251415263,-0.017680745961971
1180,0.030037763058406,-0.0022042855305212,-0.015587793094022
1181,0.034665798865226,0.014969555755736,-0.015702337862663
1182,0.010792371738663,0.029162274913922,-0.011137507986663
1183,0.0046249651607337,0.040094967882679,-0.0056609865526129
1184,0.004142589803521,0.019944302607668,-0.0027535953315741
1185,-0.02260924529453,0.0048224056619829,7.7102051383912e-05
1186,-0.024737829688032,0.00071367434932101,-0.0040618244721413
1187,-0.023673331448094,-0.0027821580395833,-0.0048073665016548
1188,-0.0076752480103248,-0.010623784085343,-0.0076886801165226
1189,-0.010304585758595,-0.015128194987816,-0.012471627974434
1190,0.00052404956771656,-0.01632003239717,-0.018085575717406
1191,0.010727722880747,-0.015708956345073,-0.021429202621142
1192,0.0093566307729971,0.0027297425146804,-0.022506348219828
1193,0.0072317791858414,0.023045065494687,-0.025696402443095
1194,-0.03345082522902,0.05341896097338,-0.023314189176251
1195,0.0098795839907161,0.038232860420804,-0.038295513451832
1196,-0.0045365372127646,0.019591810878621,-0.035594557282391
1197,-0.011465423325446,-0.009940138682514,-0.042151951811271
1198,0.011526351458732,0.010359824397076,-0.04145118074563
1199,0.017700576711805,0.026950071501429,-0.0381482083038
1200,0.017102907497812,0.021860140422722,-0.042436974685092
1201,0.013417980009426,-0.0096856870848452,-0.040521551736144
1202,0.0092672395206561,-0.028843597550986,-0.040146784626858
1203,0.0099491794063534,-0.021489912444674,-0.034518745041593
1204,0.023432439031025,0.016191878356521,-0.03260979217335
1205,0.005305836141973,0.022838394819586,-0.027216491964359
1206,-0.0057767757008703,0.0087224485035331,-0.026860956902096
1207,-0.024847807392084,-0.035793899214848,-0.022081535602657
1208,-0.017978572895105,-0.0427182436109,-0.024830729086421
1209,0.023568587271587,-0.0067399605840949,-0.028658577089975
1210,-0.0055915281265545,0.062238817450428,-0.020931040293446
1211,-0.016572522855182,0.064498928514781,-0.018225694889135
1212,0.022089941866834,-0.012800520267655,-0.016913667751337
1213,0.020435744334404,-0.034155461026064,-0.019131094503857
1214,-0.0064394978825867,-0.023866045462384,-0.024498174147653
1215,-0.023737766837644,0.0021931294754185,-0.020562191312251
1216,-0.013296746445278,0.025765332918318,-0.020217026529074
1217,-0.0057995885406605,0.011028849711221,-0.019310430483803
1218,0.0025671006316969,-0.018132007476747,-0.02067049810904
1219,0.00088691093440237,-0.027654470109139,-0.020435733143786
1220,0.0029207145432358,-0.0029919710236277,-0.021542230920171
1221,0.001048194134499,0.014898208284537,-0.01971373310952
1222,0.0055448446612464,0.018193184386404,-0.022262441322486
1223,-0.0048225252033264,0.0066182599035381,-0.023577044051233
1224,-0.0068009038658924,-0.0051401861556726,-0.029541177606056
1225,0.0064375719573595,-0.012443760702826,-0.033799076344787
1226,0.010235785165281,-0.015573642709968,-0.035796664587585
1227,0.0020918390859161,-0.01111000972838,-0.037429653465814
1228,0.00045149493101358,-0.0024829036317092,-0.038032687643093
1229,0.019879450828545,0.012860529441005,-0.038895415902866
1230,0.020165970782584,0.02126041529002,-0.03814704450527
1231,0.0071987652461462,0.019553251592274,-0.040778541876747
1232,0.015563410232641,0.0034517284554872,-0.039278644051588
1233,0.010006531210387,0.011234295555281,-0.038925998726459
1234,0.010940804511343,0.019909928192697,-0.040928024452157
1235,-0.002825617213169,0.0089176285495895,-0.037145825651539
1236,0.00027557474979493,-0.0072860921826215,-0.036771567547157
1237,0.009439876518761,-0.0074832740029551,-0.03304407914087
1238,-0.0053361264286795,0.0071763587470093,-0.030296165316712
1239,-0.029503032243494,-0.0232235331425,-0.032295813831566
1240,0.0063409643406493,-0.045919544028406,-0.035505752986183
1241,0.019464396194018,-0.029449725899568,-0.032881493934772
1242,-0.014657488951068,0.0023840971957811,-0.02588843799088
1243,0.011087623073625,-0.0065745316301983,-0.024446334798752
1244,0.032036251921889,0.0033060553845592,-0.02030982133481
1245,0.035853158242038,0.022494995152918,-0.016461413579248
1246,-0.012876185266744,0.038620348418951,-0.012751784240635
1247,-0.011507897272327,0.029502969674723,-0.010953606279846
1248,-0.024825249208655,0.034755850743853,-0.012855587545207
1249,-0.025492709526194,0.044052866334228,-0.017572632420015
1250,-0.024844095812672,0.023812165031008,-0.019363660113155
1251,-0.016057164721091,0.0028814009815295,-0.022500690792907
1252,-0.019801927306768,-0.0065292317806514,-0.022993224902085
1253,-0.0058139665616395,0.0018092298658045,-0.02942180088834
1254,-0.01357285183907,0.0057539282272787,-0.031662362195451
1255,-0.011243309439426,-0.0099744787816535,-0.037946785202082
1256,0.0045643014263527,-0.022368133227414,-0.039911636758458
1257,-0.0061303536048054,-0.038676752194375,-0.038593553669856
1258,-0.0077846419634355,-0.030396647645889,-0.042151015748317
1259,-0.015651783677227,-0.011130780998698,-0.0402304179472
1260,-0.024598228276156,0.017563625349189,-0.039459477668894
1261,-0.021108571876561,0.015872245624,-0.037695882849894
1262,0.0024407141092514,-0.017981725644263,-0.034816982048653
1263,0.007339011732732,-0.01911916577328,-0.027969567366709
1264,-0.0058892909518185,-0.0056774551863613,-0.023092760472619
1265,-0.008601140479954,0.00032849720356243,-0.019579208306154
1266,-0.0094715737860867,-0.0075233890820204,-0.017164342961066
1267,-0.017760526246989,-0.0071915145310811,-0.013232926349524
1268,-0.011550821769464,0.0035029900543792,-0.0076912815988702
1269,0.00636354925368,0.0028646624035007,-0.0037101523195741
1270,0.0082141025896199,0.0061070605676989,0.0039457226782473
1271,0.011831058259431,-0.0032313213928519,0.0097545995630406
1272,0.011329155225814,-0.0098928240596053,0.013830768578347
1273,0.015042582861767,-0.0026000776980004,0.013292154490663
1274,0.002429798825927,0.022422023254869,0.013346641616958
1275,-0.01076934420004,0.026260396213137,0.010938648836119
1276,0.0062090743057658,0.021462186059464,0.0069386283800336
1277,0.011881472115205,0.00029466825426121,0.004840302952777
1278,-0.0095960210728428,-0.0011021777479325,0.0018658710641036
1279,-0.013533005611701,-0.0022715526941089,-0.0013048796592783
1280,-0.0099115321444057,0.0024330536134916,-0.012573633571326
1281,-0.028819934477721,0.010873546582493,-0.027239686905238
1282,-0.031505140242183,-0.0033670369394505,-0.046806105957702
1283,-0.02424275035052,-0.0026785277486706,-0.057930847573785
1284,-0.015265803474656,0.0072970510874812,-0.066701534586582
1285,-0.012766645355584,-0.0021431785450188,-0.077300270715767
1286,-0.023675504193583,-0.0076862806347249,-0.080249692317781
1287,-0.012819823501326,-0.012326502558529,-0.089143968198319
1288,-0.010348490688055,-0.011458279538772,-0.095689484947363
1289,-0.016569010448184,-0.0016073067331224,-0.10637795388747
1290,-0.011999387551221,0.025603852447614,-0.12625391507058
1291,-0.0014591076363477,0.048410370667581,-0.15237598563774
1292,0.0013657263303832,0.058125903268516,-0.17412807672639
1293,-0.0059748872389181,0.039915227950642,-0.1947244553523
1294,-0.0076571067381023,0.020739239768445,-0.21543013045735
1295,-0.016935812878474,0.0016797987447838,-0.23152023116255
1296,-0.0080249235465096,-0.015021772440941,-0.26055707666241
1297,-0.0079884409628952,-0.012653158648132,-0.29333229021351
1298,-0.020846175762372,0.005786564315064,-0.32490489664909
1299,-0.030515499311336,0.030277670582994,-0.3541809790924
1300,-0.039650312720042,0.030573539671637,-0.39223763903514
1301,-0.038619580417774,0.020303161355541,-0.42253609417402
1302,-0.044610150316528,0.012125237719091,-0.44902784389811
1303,-0.055098012929496,-0.0085268728382329,-0.47914884675203
1304,-0.025798990243137,-0.010672327001453,-0.50590279799147
1305,0.0065039240235334,-0.0015429411709212,-0.52366260119908
1306,0.003861499452313,-0.011277581767585,-0.54259628102696
1307,-0.054196298301311,-0.0071257505294425,-0.56701220830212
1308,-0.04557912106763,-0.012689018495086,-0.59204311962531
1309,-0.01683976638159,-0.013376295456996,-0.60028310170491
1310,0.033923057637692,-0.04454374283491,-0.60560732325734
1311,0.0065793932005241,-0.067929854281103,-0.61336827662478
1312,-0.050808004452026,-0.082942288416124,-0.61718815138803
1313,-0.073657734599291,-0.10060571141411,-0.61762617517051
1314,-0.025336642547946,-0.092872185844064,-0.61154625009926
1315,0.0083241819588377,-0.067336308960004,-0.59993430311967
1316,0.048209288222513,-0.072832043935457,-0.57421514612787
1317,0.067707971568606,-0.048214256387525,-0.52825500219669
1318,0.020231341313924,-0.037543452884512,-0.47752948675411
1319,-0.014705452502355,-0.044403530580378,-0.43956049607648
1320,-0.0078569067670505,-0.062872266749169,-0.39344316196567
1321,0.045726504527323,-0.079229705824253,-0.33288297322998
1322,0.068714571958368,-0.065530977717633,-0.28752501150041
1323,0.051029702152914,-0.035695935628965,-0.23175714004205
1324,0.01678723080291,-0.022405056539177,-0.16822614833159
1325,0.021154160040415,-0.041281667118946,-0.13175582110293
1326,0.03281452817047,-0.051839965981461,-0.097564709934774
1327,0.033154051093236,-0.048393268910741,-0.069863551054661
1328,0.036242148407692,-0.02535347567998,-0.046941069550707
1329,0.03875997794829,-0.0031232046791865,-0.016680916486905
1330,0.0537613503161,-0.0012655185838463,0.01556526502075
1331,0.019059615992596,0.01876067253891,0.055972412785107
1332,0.044101492789384,0.062022327920151,0.10251296094022
1333,0.052802132990818,0.083188537421595,0.14118643251678
1334,0.021772643935762,0.083353036785364,0.16822520171013
1335,-0.0077345545527597,-0.0097005954206415,0.18706707097877
1336,-0.0010516413810604,-0.045949157113727,0.20709630619089
1337,0.01831301243242,-0.038640762869328,0.20997361977207
1338,0.014598941082958,-0.013464024755552,0.21587783924082
1339,-0.015747423769627,-0.0025635751603778,0.22704523458249
1340,0.0012047720092179,-0.0067020818239227,0.23836528408682
1341,0.0030628418719604,0.0028917015963459,0.24879016311291
1342,-0.0057541060413376,0.015737158556331,0.25055558043832
1343,-0.0090859285079196,0.018402262210327,0.24991393004609
1344,-0.012222419237202,0.021593060695921,0.25201055507494
1345,-0.00093722873123845,0.014672603178842,0.25279065500834
1346,-0.0068275070642583,0.016139410026847,0.25296342036351
1347,-0.010814289192797,0.0089809517972435,0.25269563271339
1348,0.0030262555367372,0.014832549010164,0.25524315067518
1349,-0.010176811903005,0.016962080559746,0.25412862557209
1350,-0.0022032347118077,0.019065994368735,0.24725840801713
1351,-0.00078581026161721,0.0077016228391291,0.24490021214497
1352,0.0058669530066835,0.0035330604897491,0.24150270828948
1353,0.007734417449275,0.0080654953698739,0.23872332861346
1354,-0.00095837282420456,0.0098684399220619,0.23480953409465
1355,0.016481224744067,0.0011853048620317,0.22904689736928
1356,0.015485338018615,-0.001613186868689,0.22700357279537
1357,0.014849291775339,0.0021136601914497,0.21995449707063
1358,0.0034439465056466,0.0047062099474366,0.20824763941978
1359,-0.0065852691719105,-0.014346509918529,0.19253969778015
1360,-0.0066353836723739,-0.037934473363809,0.17488312869082
1361,-0.0078506270122513,-0.037607909906093,0.16263502669718
1362,-0.0089763298332243,-0.016739115491576,0.14702188873481
1363,-0.010401912188802,-0.0019928755689237,0.13162717460856
1364,-0.015409950377919,0.0067872349127953,0.11651883639655
1365,-0.028047015941957,0.011713528209173,0.099630910039454
1366,-0.023972588932136,0.009589842214651,0.082345429486002
1367,-0.033241531700924,0.0047598366620119,0.066447924554215
1368,-0.015753526901165,-0.0053092432114935,0.053695547502139
1369,-0.013854007103621,-0.016528314042052,0.052325370456062
1370,0.011607613343552,-0.020332993258957,0.047115240827174
1371,0.024967297982343,-0.036896832682377,0.048205471422664
1372,0.0321828998674,-0.046365409773578,0.04711193539694
1373,0.0093894625253803,-0.0095041436848381,0.047598967405613
1374,0.01280676437998,0.036829128151415,0.041904496786473
1375,-0.0019303978615915,0.04873640487164,0.034844321796892
1376,-0.02411578930025,0.0088137407597613,0.020258355563456
1377,-0.032502978179829,-0.015086603188343,0.0050984147094062
1378,-0.01058381788755,-0.032751026223964,-0.004719052372542
1379,0.003326205257821,-0.036989988357986,-0.010747298642734
1380,0.014585075921973,-0.027422349438518,-0.012836248658681
1381,0.018463824296811,-0.010579509120746,-0.018885646381339
1382,0.015219528450718,-0.0060321540412712,-0.028101422937893
1383,0.015294421860369,-0.0097250023822135,-0.038981300109968
1384,0.0054241047875835,-0.018580190450412,-0.047169914302906
1385,0.00821852743999,-0.017972043860153,-0.058619178252336
1386,0.0091946612096196,-0.013030187098818,-0.066083558293632
1387,0.0064057990881301,-0.0062596562257341,-0.07803940287809
1388,0.008099433656508,-0.012802327636061,-0.084776182410953
1389,0.014364969749756,-0.012665153973491,-0.08777311081529
1390,0.0019520569402415,-0.020456705933485,-0.095766453422164
1391,0.00091909045546031,-0.0071462845658114,-0.10632292755463
1392,-0.0034747304225143,-0.00094224561874873,-0.11739310056534
1393,0.0020365420233423,0.0047063619105278,-0.13225793983819
1394,-0.0072856735992594,0.01419770838376,-0.14391762232
1395,0.004651250575112,0.0062630747328631,-0.14859696074541
1396,0.0091865257300712,-0.0078729549487686,-0.14800374109065
1397,0.0064431919731264,-0.0017308169171086,-0.14704323742975
1398,0.019312934956888,0.0070409189950212,-0.14731047277084
1399,0.025777823121994,0.00011023557143955,-0.1444463657167
1400,0.013677511064827,-0.021811357196886,-0.14650859137782
1401,0.0043730967780868,-0.044424578420954,-0.14508413782252
1402,0.016264771203618,-0.038688424870801,-0.14514253226622
1403,0.018440166417283,-0.019717089487838,-0.14593724574862
1404,-0.010236878773912,0.01241362140714,-0.14884280128099
1405,-0.015674564397692,0.023929076479633,-0.15315465694264
1406,0.0045015282979454,0.0071710256167234,-0.15393551270241
1407,0.001072826110552,-0.0099556490828246,-0.16035761460337
1408,0.0073453611444467,0.0024566754405567,-0.16124243760068
1409,-0.015061794190284,-0.0053069225966986,-0.16518270184074
1410,-0.020190706660902,-0.018569690789504,-0.17291623639991
1411,-0.018093707155583,-0.055617641294921,-0.17950931151295
1412,-0.013172655451841,-0.032485462532012,-0.184187503739
1413,-0.030655326110985,0.0070201839205233,-0.19301910308061
1414,-0.025508093517854,0.038540019276542,-0.19512028591494
1415,-0.015021064628434,0.0071433011419242,-0.19475127042911
1416,0.015786364603133,-0.015087279944401,-0.19467861193128
1417,0.0029397464893552,-0.0096231963454451,-0.19834240645014
1418,-0.016399473574458,-0.0047042832344158,-0.19846500471182
1419,-0.012921733584548,-0.006436373431538,-0.19776676968111
1420,-0.0054402784653431,-0.011402680284797,-0.19767964410379
1421,-0.006752429124742,-0.0063021831832791,-0.20249771554445
1422,-0.0050313362231591,0.0070294938285589,-0.20257346597271
1423,-0.0072095983975431,0.023054192350687,-0.201639335021
1424,-0.0004593543594828,0.013482592565591,-0.20216781213114
1425,0.0015242101182298,0.0085833041681264,-0.20196628632232
1426,0.0068610068367724,0.0029710419637272,-0.20090607437863
1427,0.0049198515756308,-0.0050770077180181,-0.19812987178063
1428,0.016662323978826,-0.017352003761296,-0.19610680217329
1429,0.038735053457551,-0.014646874934106,-0.1950712001934
1430,0.052147952555979,0.0033154651741149,-0.19100726591926
1431,0.035275263462535,0.017482740702474,-0.18703362393568
1432,0.026171712200259,0.013200546150346,-0.18586356160952
1433,0.038084848529201,-0.007047603613876,-0.18168515734469
1434,0.0065702881098099,-0.023892973276365,-0.18179413884413
1435,0.0064836697078994,0.008678843071558,-0.18505731839775
1436,0.0015074084853125,0.022377077329752,-0.18421925946377
1437,0.013259610886557,0.014123668946637,-0.18440869701243
1438,0.013726994848621,0.0059418010678746,-0.18273044458669
1439,0.021669305046379,-0.010768266529491,-0.18296372302308
1440,-0.0083524191781135,0.0041079629448822,-0.18183844396241
1441,-0.015617860397659,0.014801228991442,-0.18650305416295
1442,-0.016538194066253,0.024525246706806,-0.18513599164867
1443,-0.050565867904423,0.0033783845726096,-0.19374186145125
1444,-0.036690372999241,-0.002571982229667,-0.20312688658986
1445,-0.023380289215849,0.011191567367678,-0.20224739735615
1446,0.00022775765228779,0.01950988094918,-0.20073165241508
1447,0.0038176970063057,0.024805165517088,-0.20047101847358
1448,0.010062431277646,0.010770788370907,-0.20074182537853
1449,0.0065869967242185,0.0046235078443493,-0.1963751146351
1450,0.0058406963073192,0.0039469552901118,-0.19874948448633
1451,0.001043367694808,0.0011374905678849,-0.20121677709087
1452,0.00056524531509951,-0.0019631610247744,-0.20517337538703
1453,0.0015354092867815,0.0014184772811284,-0.2096609263478
1454,0.0028378230458475,0.0060634705658179,-0.2111709824351
1455,-0.00022847271287402,0.0098499790511498,-0.21119194392801
1456,0.002962364760587,0.014387714701062,-0.20955439686727
1457,0.0015868823789188,0.0057474523577102,-0.21275272947074
1458,-0.0020503385582694,0.0073265360390133,-0.21243940022875
1459,-0.01268585064636,0.0032380163534189,-0.21211119323152
1460,-0.016941564873803,0.0051793243517162,-0.2125946302447
1461,-0.019241191179215,-0.0063933416492772,-0.21214606065323
1462,-0.02638691843705,-0.0035082072480174,-0.21523248760394
1463,-0.011680234704976,-0.027437372503821,-0.21066337245081
1464,-0.022778230720246,-0.015653241829933,-0.21051857248945
1465,-0.030365095251063,-0.0084801338291633,-0.20625632447583
1466,-0.028207729654442,0.01775436988574,-0.2034024783539
1467,-0.030558884455478,0.024226424727213,-0.19862530396025
1468,-0.028433989568624,0.016592834416282,-0.19518314877313
1469,-0.029843016423044,0.010122229975508,-0.18791340823659
1470,-0.027024816478105,0.014476139801648,-0.18490222953797
1471,-0.0051352836704518,0.011996317189454,-0.18508571755441
1472,-0.020707973652077,-0.0050755121969993,-0.17872095582371
1473,-0.0033787808245317,-0.011182417230604,-0.17444431540624
1474,0.016691959922836,0.011274749954468,-0.17047306976642
1475,0.0054150945240949,0.017684515902777,-0.16718923106937
1476,0.010478615220463,0.0018981949606386,-0.15966569368761
1477,0.019518626412891,-0.0028405974051722,-0.15046472797933
1478,0.032957219873178,0.0047302890195947,-0.14631121415151
1479,0.059893111926007,-0.00031089612757101,-0.13322146968352
1480,0.044009257748732,-0.018871208035024,-0.11204514225813
1481,0.054557320320598,0.016405909583572,-0.095239788676554
1482,0.034177412938631,0.043460884873379,-0.081908907822741
1483,0.010159582433834,0.02215202011294,-0.082167827688526
1484,0.002181644905274,-0.014213453108363,-0.081547116028746
1485,-0.0050876104145943,-0.0091683920417775,-0.078938953952178
1486,-1.7570650204349e-05,-0.0044370061674386,-0.076392754505843
1487,0.0080758495820352,0.007023371728243,-0.070637732389077
1488,0.03021674671425,0.021805920284309,-0.064656192045679
1489,0.018707145339092,0.023204425676293,-0.051419140422117
1490,0.046533958323498,-0.0038220239015566,-0.036093837556679
1491,0.025665069714313,-0.0031701199915485,-0.025683784236325
1492,0.0041358221109324,0.0085663946102043,-0.020898536692989
1493,-0.00089593657948257,0.01396207943461,-0.020318017263171
1494,-0.011120313044558,-0.0079696178277252,-0.018225022294539
1495,-0.0080348601821568,-0.015020817450011,-0.017821671575026
1496,-0.0028506230944548,-0.0013312172301576,-0.016552327193749
1497,-0.0070720280885457,0.011391423580253,-0.016824420958674
1498,-0.0048888189504669,0.0094792027401873,-0.012577865313998
1499,-0.00062246218828424,0.0052838372791807,-0.0066798075261271
1500,0.0040765556379173,-0.0058184721386228,-0.0053814259141245
1501,0.010548407507183,-0.0015889122089804,-0.0021905187256851
1502,0.015838566513361,0.0057640470260174,0.0010961888337572
1503,-0.0083407140601733,0.0037555643360942,0.0039236154241542
1504,-0.0029502210038174,-0.0099210091573103,0.0011837486145499
1505,-0.0097112175392801,-0.0072756076250467,-0.0010302816529017
1506,-0.011655764772758,0.0046626402827523,-0.0038287027760266
1507,-0.0043760121023913,0.021628143422788,-0.0031145812734721
1508,0.0042727827210656,0.014830956174411,-0.0031596574987031
1509,0.0080819555877006,-0.0013243126574867,-0.0056519083068066
1510,0.0035067763950752,-0.015683929245623,-0.0058833897483189
1511,-0.022134660503032,0.0015114644557261,-0.0057206038449505
1512,-0.011000187768608,0.024543769633924,-0.012679232896639
1513,-0.061444198511133,0.0074890375302837,-0.015102837079374
1514,-0.0012818660033585,-0.0073218364330193,-0.021105904627659
1515,-0.0083996383421781,-0.010592760008486,-0.017512914163365
1516,0.017603215105494,-0.029088191438811,-0.021534149958227
1517,0.044582386475578,-0.010234058853471,-0.015879423341659
1518,0.031390422861285,0.00034649454732126,-0.018178550303578
1519,0.025699534817828,0.023841439766851,-0.014413627499294
1520,0.0047991953190414,0.013827320440157,-0.017389552926794
1521,0.0045104907439726,-0.0049866760589467,-0.020004201391048
1522,0.00398535297891,-0.013767932048634,-0.014698828853429
1523,0.0076974882388851,0.012465157094436,-0.013904289740452
1524,0.0075012025467373,0.021786216255493,-0.009853681272168
1525,0.0010270355838515,0.011630263583341,-0.009278647659864
1526,0.0043771521737809,0.014832852201257,-0.0056405004419148
1527,0.023556392738241,0.0090082637887959,-0.00132671996037
1528,-0.0076094319024698,-0.018235450115139,0.0077056207706899
1529,-0.0088591299167929,-0.03871883753834,0.009457941326315
1530,-0.0074030227889358,-0.0021711033579164,0.0030488461915356
1531,-0.038316467927394,-0.021063288816119,0.004538768176181
1532,-0.016092348168389,-0.017471112336946,0.0054767421061541
1533,-0.010511384033437,-0.012137355618646,0.0042199514438486
1534,-0.0079772809592347,0.0065399273564974,0.0026418696219363
1535,0.0011733938216881,0.016198729019707,0.0031727018609282
1536,0.0074381598920857,0.0098674585780201,0.0016136521328033
1537,0.012735871211783,0.0082889981797159,-0.0020531974540257
1538,0.011958070466969,0.0049812808818847,-0.00487613254005
1539,0.0011919560402037,-0.0067529683360318,-0.0065773021371553
1540,-0.0036357926330803,-0.0044326368204147,-0.010165110711403
1541,-0.01653311515933,-0.0033161014199744,-0.0087468947427444
1542,-0.021839944593592,0.0066901439628398,-0.010737661725925
1543,0.00015171237576662,0.020163608922299,-0.012286018513503
1544,0.0028232484478397,-0.0057395105428407,-0.009629604225271
1545,0.015403766857076,-0.058346520231981,-0.0080472616668588
1546,0.011554077252074,-0.0041215784098565,-0.0078082333272642
1547,-0.0085184655583656,0.046600768158003,-0.0097221926710248
1548,-0.018351953107276,0.028190066367289,-0.013429586902626
1549,-0.033440460826096,0.0038641779694914,-0.012009991880445
1550,-0.015174310463416,-0.03315457768076,-0.010868376242793
1551,0.0028628749702151,-0.030651887509158,-0.0096812671753598
1552,0.001436058356045,-0.0055679564748624,-0.0069165915029912
1553,0.01632524635125,0.012083984534646,-0.0026170654760367
1554,0.016173337141357,0.0073325091983241,0.0021408498897659
1555,0.02262754828107,0.014330038238382,6.9376969689781e-05
1556,0.0082185662201248,0.0092590040825103,0.0027593788025277
1557,0.0082415227856659,-0.004612822514608,-0.0023518877735575
1558,-0.015494100035478,0.003643423954516,0.0034838074138369
1559,-0.011895073977486,-0.0042065435274445,0.00015116502247418
1560,-0.026057711584519,-0.0021365455909743,0.0033087413940299
1561,-0.015054215593561,-0.00011286006065171,0.0018341704236879
1562,-0.021664494600804,-0.0012199698025726,0.0047051601564544
1563,-0.0015214395454858,0.016376890336891,0.0061351072033302
1564,0.020069196018991,0.0063102284921754,0.0079853278129922
1565,-0.00057550300560342,-0.021474555061151,0.013185135262453
1566,0.0094086704265945,-0.022642363180584,0.016502518458296
1567,-0.012359206642988,-0.0063033951312631,0.016831251311945
1568,-0.026052108911888,0.010855534766209,0.014421795198194
1569,-0.02937996758903,0.023507769605602,0.019606582447029
1570,-0.014596196430941,0.0010134971269971,0.01862685239258
1571,-0.014703455598933,-0.014613171546591,0.022693692782464
1572,-0.017037674101115,-0.0042368794368119,0.021653458632988
1573,-0.008144555979153,-0.0042396305598385,0.017401964835991
1574,-0.0053770753273774,-0.019149831294627,0.013710291355363
1575,0.013434810409154,-0.034162034692026,0.013955347079294
1576,0.018612381761348,-0.015315785537616,0.015087633207929
1577,0.016736079434118,0.017059145416511,0.01396491716956
1578,0.010408987276388,0.021185521669292,0.012412256542308
1579,-0.0040135530575752,0.0061228220986154,0.007146459514518
1580,-0.01620763886845,0.0015060255444877,0.0038557633985383
1581,-0.0084219147147109,0.0017291888089665,-0.0023663378946376
1582,-0.016216276223676,0.0008082158168461,-0.010077065369577
1583,-0.002293136631573,-0.0069436150942841,-0.017077748940268
1584,0.0031126384107215,-0.010769103615029,-0.019554526165362
1585,0.0046600998913444,-0.021616767688987,-0.022789878599636
1586,0.01352863228563,-0.0085305510493728,-0.021917673694645
1587,0.010497723787998,0.013941556219773,-0.022351612336693
1588,0.0061241082875563,0.023183282985765,-0.022170607410846
1589,0.0063318106153731,0.015607388196977,-0.023647671016124
1590,0.010772991127506,-0.016190558877292,-0.026062446523458
1591,0.012763335848203,-0.019836032198134,-0.025747194410333
1592,0.023502011807806,0.0075824022664767,-0.026767113384223
1593,0.007274428757133,0.020282183986865,-0.022563773235616
1594,0.0097672750176817,0.0017386734175947,-0.024704112852267
1595,-0.0022272357268139,0.0057605224556789,-0.027821701583506
1596,0.0046558015200336,0.028915613050059,-0.036626403647516
1597,-0.030728776587139,-0.0066727607656549,-0.035715771160501
1598,-0.0088629966049386,-0.070591591420776,-0.039384636836966
1599,0.002236070851329,-0.053185806285123,-0.041485974713501
1600,-0.015574100425455,0.024617873449011,-0.047905345546188
1601,-0.021152190259352,0.046725306522753,-0.045583227913742
1602,-0.0098644849254504,0.0050861720650959,-0.04261572668798
1603,-0.020359660274963,-0.033641123860966,-0.041299307000718
1604,-0.014549459046327,-0.020193887891011,-0.056219119158322
1605,-0.021291811400618,0.035623342588703,-0.063888874468951
1606,-0.03546741703804,0.062157355246815,-0.069856402824416
1607,-0.03191648658303,-0.0017603676160368,-0.065555887592582
1608,0.0017826864454422,-0.056083113611898,-0.066478160259883
1609,0.0051760097573191,-0.029738138003404,-0.066661500468401
1610,-0.008928828358699,-0.011928631300418,-0.064296852046847
1611,-0.0017761534626827,0.001024131186596,-0.060615072091274
1612,0.0077784123288481,0.018291958782424,-0.063273537656748
1613,0.0041046692702447,0.033638023048438,-0.065373289666772
1614,0.012465454723051,0.018167161766329,-0.061820393463519
1615,0.014251461606552,0.0055339610413803,-0.058796780701689
1616,0.023056604103904,-0.0021518720937571,-0.055571238002662
1617,0.02421308456974,-0.00053344285556939,-0.050470501004977
1618,0.027201520212831,0.0027619218567562,-0.046223608040575
1619,0.026383068405587,-0.0082592811648326,-0.040051362316533
1620,0.032484304955709,-0.019395222589929,-0.032093947619549
1621,0.033498158845005,-0.011349754797961,-0.021891298227279
1622,0.028256344044946,0.013125493312485,-0.013667242966136
1623,0.017020391992205,0.020510910130465,-0.0062312965603907
1624,0.013468229265837,0.014698557319616,-0.0013116616422147
1625,0.013668138034135,0.012338726543637,0.0086467716953781
1626,0.024479032787849,0.021894407316645,0.014814883787771
1627,0.014400474448554,0.030896537341964,0.022277041218928
1628,-0.0028756768783743,-0.012912166720783,0.025752976513562
1629,0.013560256778095,-0.08636187480373,0.029910837419213
1630,-0.0045466004019376,-0.067830350463114,0.03253534223497
1631,-0.023161380635884,0.053500401933776,0.035494628512823
1632,-0.0051413368966281,0.088693504874604,0.036174361813753
1633,0.0073953630051996,0.037709020477992,0.035548994288173
1634,0.0059864654578849,-0.065615518107303,0.033917999952614
1635,0.026121908250833,-0.098317421235327,0.031594844960481
1636,0.00738155688949,-0.024826879565915,0.029810165404119
1637,-0.013387578244223,0.052230978822757,0.019104555973813
1638,-0.010115499818461,0.055866173967847,0.011011959898055
1639,0.0045000099377378,0.024900376500093,0.0059228650236338
1640,0.0072970217157649,0.0073165988507596,0.0053399372411164
1641,-0.0021327578461652,-0.00090005337782236,-0.00040240696802093
1642,0.004909199466444,0.0067177541564608,-0.016146937464301
1643,-0.007104652255969,0.016797053422898,-0.034516346545457
1644,-0.014172915423083,0.011595397423026,-0.053182857416597
1645,-0.0027750007757743,-0.0018664464486307,-0.071213230894019
1646,-0.011014456918662,-0.0049473986218602,-0.088457931336474
1647,-0.018868169645286,0.0025125109047348,-0.11076909678612
1648,-0.023459843423085,0.012343695189423,-0.12405518076991
1649,-0.027778609712385,0.017342701765239,-0.1361576392827
1650,-0.017860678260284,0.015707298256623,-0.14423241990108
1651,0.0044219714548215,0.0098095817319853,-0.15258400374962
1652,-0.018214607236009,-0.00050675167552063,-0.15641805789953
1653,-0.017331894326772,-0.0069042110481275,-0.16081142275989
1654,-0.0050297192567922,-0.0063437329654196,-0.16357166400232
1655,-0.0033800947055212,0.00014642885035173,-0.17294933916604
1656,-0.00035020869339716,-0.00358320626398,-0.17658827794481
1657,0.0022437859583061,-0.0066388645066007,-0.17892045271732
1658,0.00093782544193173,-0.0064653986366137,-0.17949839516127
1659,0.0060786719768237,0.0080968654391948,-0.18140062267946
1660,-0.011074195684025,0.019049210392536,-0.18375135563275
1661,-0.018060363087906,0.031311121551101,-0.18428813233143
1662,-0.0070701264952477,0.027337753782668,-0.18269836607051
1663,-0.01308018948523,0.0091845131990378,-0.17524625537788
1664,0.0031489414098841,-0.012719768735599,-0.16850023269461
1665,0.010209866331196,-0.010647843462085,-0.16017617860782
1666,0.011069650873452,0.0066045863984482,-0.15825308146016
1667,0.0050398624986795,0.024296961816097,-0.15748998364277
1668,0.017105566076522,0.014616958525693,-0.16337616828761
1669,0.013954004591903,0.0088036805385354,-0.16632913317664
1670,0.0083618634946912,0.010992990745596,-0.16988673665287
1671,0.0074219135927539,0.0066665214965716,-0.17146916427383
1672,0.010559389997342,0.0084709843749938,-0.17504446085001
1673,0.0093386216089343,0.016168035056838,-0.17968267648939
1674,0.0097131232771375,0.014482392165082,-0.18357650202982
1675,-0.00036362712578102,-0.0046206032999616,-0.18750959753518
1676,-0.0060497992040617,-0.019890774194585,-0.19453416494958
1677,-0.0065571933069611,-0.018095085651678,-0.19883307399031
1678,-0.015587399375811,-0.010813511927795,-0.20278234880631
1679,-0.0057315555672525,0.001667376304643,-0.20573470294856
1680,0.0062876247821066,0.0083180747158214,-0.20400134350015
1681,0.020517308354025,0.0034926757622946,-0.19907782876078
1682,0.056672219790799,0.021770003679662,-0.19453243303959
1683,0.022344295245037,0.022987584919195,-0.1771075595145
1684,0.013117223979249,0.015245531901415,-0.16612439236773
1685,0.0047511095205962,1.5407121910554e-05,-0.15479761499263
1686,-0.038941009709114,0.012389040246987,-0.15411261251016
1687,-0.040710496937763,0.012821025085127,-0.15255164573016
1688,-0.026791033248266,0.014061130585677,-0.14741964748772
1689,-0.020483548158368,-0.016061031727728,-0.14073249304196
1690,0.0045854262594055,-0.049532480892295,-0.12872252170208
1691,0.022064958537236,-0.02524315391126,-0.11032836463959
1692,0.014466709171003,0.02084875816701,-0.088857403303071
1693,0.0069510066372101,0.045086382386493,-0.07538534265291
1694,0.0037113320533018,0.018079147305063,-0.07172596830713
1695,0.01296166252093,-0.013842236125966,-0.072706202614887
1696,0.0088731489559752,-0.0037364745982308,-0.069356812883925
1697,0.0016849581386478,0.014724948685634,-0.061412343844211
1698,0.0047293484228131,0.022867704301508,-0.054987381344819
1699,-0.0021420014814826,0.021503141769865,-0.045936666192261
1700,-0.002799098799907,0.016585115044836,-0.0340254058199
1701,-0.02257714271299,0.015920456497408,-0.025300774280008
1702,0.0012252723588866,0.0076730454894507,-0.028646381460769
1703,-0.010018106529402,-0.021848122127566,-0.023971362915357
1704,-0.0083686613389394,-0.027396045306636,-0.024344081843533
1705,0.0074067386303285,-0.00059881381920279,-0.024065060779018
1706,-0.01140485003214,0.013366419096555,-0.025711067673188
1707,-0.00040204914946477,0.0057116606597115,-0.027074308594019
1708,0.0094764573710294,-0.0072357732462442,-0.02236896306846
1709,0.016263225830766,-0.01221777298352,-0.020288152160953
1710,0.024549053341879,-0.002662161941703,-0.018603677731271
1711,0.023313781928643,0.0081499313284074,-0.011868559241181
1712,0.019922363243116,0.011705905488274,-0.0075219760322295
1713,0.0091475848464572,0.017102970125249,0.00069667046360672
1714,0.0036278690163248,0.013894154366607,0.013110246919255
1715,-0.0014710871634029,0.0002840476063402,0.023815927429153
1716,-0.0060643749592216,-0.013474601770081,0.039168389936597
1717,0.017945061298897,-0.014517286081355,0.053557347095206
1718,0.028050357571909,0.0041085168717512,0.063796830060908
1719,0.016948295458187,0.020362890323811,0.072503424538974
1720,0.016083433504484,0.0076674395948417,0.0775219606544
1721,-0.005512118100527,-0.0046652522807221,0.078041373461158
1722,-0.0041991558137783,-0.0040183850827878,0.071743901057087
1723,-0.021569605154671,-0.005324077091068,0.069844396364488
1724,-0.016170587587914,-0.017004736795973,0.06952387488406
1725,-0.021348225458172,-0.017071717648374,0.065919298003228
1726,-0.030003723162519,-0.0094966638388152,0.058813133318444
1727,-0.021757178807135,8.7329365624117e-05,0.050161485256373
1728,-0.009272442259946,0.017508227435203,0.046584895363471
1729,0.0006533318901004,0.013770889494197,0.04684662089698
1730,0.01037682957363,0.017480901434548,0.044003374254536
1731,0.022107037375804,0.016433593142315,0.044998902604723
1732,-0.0056849174692825,0.0042454367424257,0.042212315360035
1733,0.0063275243770832,-0.033427775507244,0.03610716111186
1734,-0.028593575821969,-0.04680587689721,0.038780583762249
1735,-0.022107781417098,-0.002158837038186,0.032648011405104
1736,-0.025619092576399,0.028932403074915,0.032713112061653
1737,-0.015671795983377,0.010532099906951,0.027138535530451
1738,-0.028452306046274,-0.020703511829414,0.026705644539226
1739,-0.010777557163121,-0.015836305867377,0.018946363155224
1740,-0.007941727334745,0.0042382520818101,0.018128120447335
1741,-0.020881532992779,0.027084446746363,0.01405062649371
1742,-0.016403310972423,0.018945508704526,0.016384148560511
1743,-0.0060296626952776,-0.002030383573871,0.015468022433165
1744,-0.0060631740710634,-0.013477957650918,0.013099067021835
1745,-0.0056075966148225,-0.03572952665637,0.011445348232798
1746,-0.0054571788567045,-0.023900867138693,0.0071031207986063
1747,-0.008847721719863,-0.010775975535337,0.0039104557109368
1748,-0.0085718981687823,-0.014714297044228,-0.005857635822229
1749,-0.011470999753427,-0.014370640584792,-0.014925375589253
1750,-0.0028364235388731,-0.02348428856345,-0.023861058286782
1751,-0.014799444615597,-0.025998860309595,-0.028967561376326
1752,-0.016626394285486,-0.022974129617728,-0.033798334182303
1753,0.0044539275019097,-0.008934723540698,-0.036556013587442
1754,0.015788458235048,0.00036042958875434,-0.035305177641579
1755,-0.0059093043401694,-0.019577609507636,-0.035018650489564
1756,-0.041690280713022,-0.057646188914152,-0.038638634670006
1757,-0.042855024685482,-0.073248501785079,-0.04036827766353
1758,-0.028079864216588,-0.080439678756736,-0.040407583047487
1759,-0.027675121756886,-0.043018015806732,-0.047612954800587
1760,-0.046125558884252,0.0085255049185001,-0.047802853209774
1761,-0.056401751439888,0.021585953855912,-0.043799337657871
1762,-0.069144837750819,-0.0031717932839409,-0.040455906004304
1763,-0.055768500261898,-0.015645394189448,-0.037037872728637
1764,-0.05483487796027,-0.023604519261679,-0.027274160016753
1765,-0.03236417289983,-0.036269542627475,-0.02014571964351
1766,-0.034536267704555,-0.035371982912383,-0.013932334299667
1767,-0.030294302687731,-0.0069851303053148,-0.01140276929376
1768,-0.037548909632856,0.021072413664714,-0.0064557863239124
1769,-0.033695816217834,0.02750698937991,-0.00089057975488089
1770,-0.012137757420876,0.021133795748808,0.0083251808349147
1771,-0.0048682505362138,0.016068902905884,0.020251986145207
1772,-0.0025948697245296,0.013709961533414,0.035825634998477
1773,-0.001710356111384,0.020397851056452,0.069674947148954
1774,-0.0036506198799743,0.03090585399843,0.10071086161228
1775,-0.0073198877923309,0.031537564581163,0.13605436375443
1776,-0.001920794509851,0.024625899414571,0.17662415752923
1777,0.0023388212035858,0.018319598454846,0.21306879474838
1778,0.0078451081203124,0.020291979100736,0.24692119986944
1779,0.0074951481565026,0.021038690863779,0.27531882249938
1780,0.01663894929961,0.020293730494204,0.30177096613727
1781,0.013619485687529,0.011290783556261,0.33496364599087
1782,0.015650014285546,-0.00045794270066481,0.36791712913425
1783,0.014154995429748,0.0027538307127973,0.40452523587286
1784,0.014417169390411,0.019963666144734,0.44737553469055
1785,0.017083954167201,0.029958136937076,0.47897133963054
1786,0.031411919225908,0.02159447784341,0.50480361045616
1787,0.046459841240405,0.013976247239243,0.5322739204634
1788,0.042371558909639,0.016814105900603,0.55738518067341
1789,0.0099881894116488,0.035637626262005,0.5809809595143
1790,0.0090435451117368,0.035451478847026,0.59429727649795
1791,0.022699011927871,0.039258742154427,0.61115403578148
1792,0.039399876784581,0.048279036471648,0.62589924884221
1793,0.043374128373604,0.051601329579989,0.6290487696375
1794,0.040962240732536,0.051592741469642,0.62833252156743
1795,0.024854429848491,0.049082156804032,0.62959905970812
1796,-0.00014086087737828,0.030865723907002,0.6189200774821
1797,0.0028727243837133,0.036332296853211,0.59971609984982
1798,0.019582563523895,0.048273366949112,0.56528481918026
1799,0.046119376995921,0.049047305551196,0.52505968916398
1800,0.060803151752999,0.052895930466253,0.48047323489754
1801,0.044732483802323,0.046320963838837,0.43980833272419
1802,0.045811439938645,0.012446108629988,0.38878442414871
1803,0.063232036881356,-0.0079877488234206,0.33230347110696
1804,0.073064653852201,-0.011154546407278,0.29264140872347
1805,0.078864776229178,-0.005492070601874,0.2546259334888
1806,0.07873269825261,-0.0020418751159239,0.23013548491023
1807,0.052686025241155,-0.00013680985091115,0.21621908398965
1808,0.042708603513967,-0.016496646205525,0.20992549384704
1809,0.032623080056097,-0.023620522036011,0.2143203109942
1810,0.025791905074083,-0.0058157249009407,0.21407421440188
1811,0.013165522602832,0.0086027991128095,0.20108066488639
1812,-0.021341926242463,0.0044763189691272,0.17188056835943
1813,-0.034419036990047,-0.012030711611665,0.13223294679006
1814,-0.039508318671531,-0.011680926538409,0.10271650211631
1815,-0.013271587232582,0.016894093743995,0.072333869726361
1816,0.0032801822340937,0.033661824173822,0.04725225107948
1817,-0.0030358003096089,0.0072225332246032,0.031136578906707
1818,-0.0048126119454687,-0.05005564191222,0.022735699303344
1819,-0.010809429724353,-0.072161301117963,0.015460217357321
1820,-0.0118608980341,-0.039508486925458,0.010865369537825
1821,-0.013189285658798,0.015856242746813,0.0093950957455632
1822,-0.019765423432641,0.050226925575936,0.0096897085962544
1823,-0.017910391921727,0.048625661753254,0.0092597351695289
1824,0.0024425539078291,0.043274766804605,0.0099305092173097
1825,0.021879138712545,0.011509893724666,0.0099639946091922
1826,0.012793506590948,-0.03266610730987,0.0060106486604987
1827,0.0016908396688483,-0.042946170972134,0.0049729393850421
1828,-0.013587990599319,-0.0079452206351326,0.00792788816533
1829,-0.013632881647344,0.052195449628821,0.0052994897644678
1830,-0.010592603560777,0.052971293853194,0.0029583328905457
1831,-0.013516105375546,0.0054752412520063,0.0022988605669293
1832,-0.00012053962625592,-0.00027899977846807,0.0059171591349458
1833,0.0057727053259082,0.0072333556490115,0.0061874963664403
1834,-0.0051038990432414,-0.032204699751977,0.0019595709891393
1835,0.0043783705957914,-0.048809044270281,-0.0014431542768644
1836,0.013624205163579,-0.014649973015114,0.0028478797678712
1837,0.015922842419196,0.03202800986089,0.0061009094494895
1838,0.030918604823504,0.0252147036383,0.0033208793705354
1839,0.020490775624833,-0.017595232909139,0.0021040037483656
1840,-0.0083023111091629,-0.043340976829384,0.0014096761139737
1841,-0.038654895931102,-0.019490705710035,0.0066032448107788
1842,-0.03248856856843,0.014432515319131,0.0058852092628821
1843,-0.034091052953699,0.048156801124898,0.0010311783009758
1844,-0.013515451268669,0.010424834307651,-0.0033405972291476
1845,0.027959238331258,-0.0094482659574125,-0.0044642665542162
1846,0.045040996699187,-0.010435384983397,0.0018054906184395
1847,0.02820955243383,0.020669546293035,5.5525266422548e-05
1848,-0.021942847466391,0.038071940519809,-0.0072959200538483
1849,-0.013261563205027,0.028969948663726,-0.009168154094844
1850,-0.018481315495266,-0.00546753724666,-0.010977152455529
1851,-0.0031907606347116,-0.014620042229708,-0.011533690396932
1852,0.0039857590935808,9.823014812254e-05,-0.00076378215737047
1853,0.011408117739418,0.023059338844068,-0.0025725467496056
1854,0.0012962367600998,0.027727128873845,-0.0018039110706175
1855,0.013129285325851,0.0430569548871,-0.0071831876350792
1856,0.016992057288538,0.03301374480947,-0.0076320165835695
1857,0.024999434754516,0.018788182888136,-0.0084957468647222
1858,-0.0018194349839745,0.00909981636636,-0.0036208890128626
1859,-0.024984845234711,0.0069509078845202,-0.00097708570445049
1860,-0.021494439384933,0.0047126469229781,-0.010219596254842
1861,-0.04097588529651,0.0042232674610595,-0.0052093187251049
1862,-0.018462991092004,0.0061400916291552,-0.00583055817409
1863,-0.0063153247623677,-0.0046968334326703,-0.0061298518466228
1864,0.00074576594942455,-0.023750742423532,-0.0061763354442849
1865,0.013999560628871,-0.0011801015075111,-0.0036179505743401
1866,0.018908408878552,0.037991773862868,-0.0042476369261561
1867,0.014526625363776,0.022797301855798,-0.0034327315168935
1868,0.011227678530285,-0.0040654810103446,-0.00035491409546555
1869,-0.0023553268454708,0.0041803223179737,0.002838040193968
1870,-0.026148204334224,0.0041575506331887,0.003665761132984
1871,-0.02296868448961,-0.0021392543205238,0.002648525367349
1872,-0.029110478287713,-0.0040922847275444,0.0032820187178285
1873,-0.021671072021718,-0.0075878706534668,0.0030631080344732
1874,-0.01299889501309,-0.0069814840808913,0.0050952251475396
1875,0.0037270933121671,0.01266370549596,0.0041495420699598
1876,-0.020744144809691,0.016492787490664,0.01051967664576
1877,-0.00044508426389179,-0.014391395573486,0.0057068836435692
1878,-0.0028929641273058,-0.04975104045433,0.0062019286707374
1879,0.0096198874195585,-0.06259458015284,0.0028416459632149
1880,0.031719399691505,-0.020257553764291,0.0072051255301414
1881,0.01289158724441,0.037378640431313,0.010461662412921
1882,-0.025967303954362,0.065605033079913,0.0073512531780133
1883,-0.0699788392119,0.081088055979599,0.0058231872301859
1884,-0.06712217966789,0.021350609106749,-0.00046848621054079
1885,-0.039267548550776,-0.050598570992377,-0.0021606803643648
1886,-0.021090259984938,-0.040046233411059,-0.00045264950114038
1887,0.010548471593017,-0.0072063904473837,0.00016291548550197
1888,0.0044433132735049,0.010715924996947,0.0047309297568158
1889,0.014320341374383,0.012455882594617,0.0060498960622736
1890,0.016444287875747,0.0064891325969051,0.012607332201821
1891,0.012122822457692,-0.0076873277490822,0.015341004975841
1892,0.0098200820585571,0.0010639921506999,0.016790341985528
1893,-0.001857801031978,-0.0061199288729269,0.019272624678673
1894,-0.002344108638479,-0.0018531986811525,0.025857068973768
1895,0.0006703725287894,0.012655704550091,0.03273418574667
1896,0.0050931429018663,0.033511962242223,0.036605138412724
1897,0.0071470532358447,0.033247371987603,0.042519111772534
1898,0.017527028945264,-0.0095502664865359,0.046475716448544
1899,0.0083044440943041,-0.038188368520393,0.060007467224914
1900,0.0042711761879604,-0.026710066947185,0.067282666821719
1901,-0.0043975950574343,0.002577213054629,0.072742272920484
1902,-0.021923106360229,0.011238067420707,0.078825904790938
1903,-0.0081205977406866,0.010148208266596,0.084742644848511
1904,-0.01115371976676,0.012814329561966,0.093990017156608
1905,-0.00033578042537691,0.022572547203522,0.099171710932285
1906,-0.001453564889633,0.013657590862146,0.10556342808685
1907,0.014697619635792,-0.024041951857414,0.10926860583448
1908,0.011991791246218,-0.024042435674129,0.11485578067155
1909,0.0037318397231003,0.010375339969499,0.12110769574082
1910,-0.0024233175219699,0.050348443291107,0.12219368917072
1911,-0.0092672319820062,0.03410813835398,0.12031738494308
1912,-0.0012244266366033,0.012520962758752,0.11520916630574
1913,-0.0041172705226076,-0.014340009131052,0.10936838004866
1914,-0.0097446274744535,-0.013819854075123,0.10142914003379
1915,-0.013888719548193,-0.0017373111640802,0.088724886308486
1916,-0.026158479305798,-0.0026781335710289,0.078350577909945
1917,-0.021222138618612,-0.0043588480779347,0.066106830837751
1918,-0.012861749781375,-0.007140071234032,0.056254705212349
1919,0.0033437436620876,-0.028309350169099,0.050997181401971
1920,0.012046226191416,-0.026723122653544,0.051666034285414
1921,0.0094087213934595,0.0031462444008647,0.058079548816503
1922,-0.0043764334902857,0.029187475466628,0.062397224154406
1923,0.0015381770957093,-0.0093487231211263,0.066660871058788
1924,0.012276860481838,-0.048706287362871,0.07375925833542
1925,0.020117041275185,-0.032995186146921,0.079682407018514
1926,0.025160808723068,0.022850773330586,0.086592391064535
1927,0.014809542793532,0.028151067923819,0.093651462475553
1928,0.0015300750103854,0.037665001931078,0.098420884851915
1929,-0.0114634861348,0.014007136793597,0.098040586861527
1930,-0.024274417170299,-0.016627085323218,0.098289665328412
1931,-0.013300378885061,-0.034455444704935,0.09707503859149
1932,-0.0051217501465933,-0.015077505549572,0.099137352738155
1933,0.0062960094146638,0.016346070283912,0.10051180321716
1934,0.0084071439324723,0.016122128472256,0.10554702369141
1935,0.022133615780815,0.015248347536063,0.10600910508306
1936,0.01303530213357,0.027462717187608,0.1061823765298
1937,0.016501019648885,0.0033933632548603,0.10312636359987
1938,0.0141656112987,-0.028169568653118,0.10142171757375
1939,-0.0006617287040383,-0.011582473284956,0.10197039837638
1940,-0.0092746948428088,0.0010839580298338,0.099651755257722
1941,-0.019891756639925,0.0038011278380957,0.10027318170405
1942,-0.026304161542253,0.017648228556115,0.099925954471148
1943,-0.0079845743795471,0.0051493080528246,0.094399190426437
1944,-0.00098321427797117,0.017835973275157,0.090468511214601
1945,-0.015565267635364,0.021530583209963,0.080952346233029
1946,-0.011772718822614,-0.007020002347316,0.064785390301213
1947,-0.0087699031674593,-0.026080920782591,0.053637364496112
1948,-0.018844576609381,-0.015361614601205,0.053744311833273
1949,-0.011367472029941,0.017770523518787,0.05061326229165
1950,-0.0085145967939299,0.044380925451205,0.048164292075676
1951,0.01026815242388,0.016230652730087,0.045290638685418
1952,0.0048261594869675,-0.0039336854655494,0.040948722240239
1953,0.0043158964858983,0.0036516451245144,0.046179130281748
1954,0.01278988421278,0.00078574558584497,0.048631071550549
1955,-0.0032026867329877,-0.011531109631855,0.053658525950458
1956,0.0034542675520983,-0.014377765998322,0.051518708344187
1957,0.012607599685736,-0.009841766750392,0.047904725732103
1958,0.021114816143673,0.028311336908471,0.041738898178953
1959,0.025365877538919,0.046552608350331,0.042948635756446
1960,0.015666797299314,0.033955257451313,0.042744769564165
1961,0.012994100225463,-0.013522845203771,0.039339128695577
1962,-0.0025446442955428,-0.037931150167579,0.040131919116444
1963,-0.0090035244943972,-0.033752219057213,0.040311782526318
1964,-0.0025710063698537,-0.0052698219683883,0.037606536049281
1965,0.0059697821141325,0.019618176910839,0.030157830537494
1966,0.015773215306751,0.032398015138047,0.023628567201773
1967,0.0088170955793694,0.025520275297241,0.018227769783558
1968,0.0038819401278806,0.017258594234655,0.013356484300026
1969,-0.0089335933263392,-0.018831970202301,0.010229135587185
1970,-0.0034573760043654,-0.028788646448227,0.0070203572307485
1971,-0.015695353822292,-0.0090236724900613,0.0062567485430144
1972,-0.013531624270452,0.021451796943783,0.0016528019333268
1973,-0.017559248500841,0.016242746733966,0.0020052553797817
1974,-0.016570335413467,-0.010863891106948,-0.00052564711341467
1975,0.0018157962632739,-0.028628972155391,-0.003410918680305
1976,-0.002804530045029,-0.015020248865784,-0.0033890688800574
1977,-0.0093896352496327,0.0164683721995,-0.0093417032522534
1978,0.0025806635942731,0.037733071393676,-0.018596216138047
1979,0.036337045710319,-0.0022375579293685,-0.025381221789307
1980,0.028209445295298,-0.035085937476298,-0.021079819002483
1981,0.0083042505986241,-0.043824115785565,-0.017571124997523
1982,0.022911541281877,-0.013772665381927,-0.013903741898547
1983,0.028047370813451,0.024217457309167,-0.0014783474644484
1984,0.01818599888269,0.018862214439177,0.018414557867858
1985,0.013465335312044,-0.021982912397759,0.047436434314736
